onset,duration,sample,trial_type,response_time,stim_file,serialpos,probepos,probe_word,resp_word,study_1,study_2,list,test,answer,experiment,session,subject
0.0,62.132,137771,SESS_START,n/a,n/a,-999,-999,n/a,n/a,n/a,n/a,-999,"[0, 0, 0]",-999,PAL1,0,R1001P
62.132,1.016,168836,START,n/a,n/a,-999,-999,n/a,n/a,n/a,n/a,-1,"[-999, -999, -999]",-999,PAL1,0,R1001P
63.148,26.441,169344,PROB,26.441,n/a,-999,-999,n/a,n/a,n/a,n/a,-1,"[4, 4, 9]",18,PAL1,0,R1001P
89.589,75.593,182563,STOP,n/a,n/a,-999,-999,n/a,n/a,n/a,n/a,-1,"[-999, -999, -999]",-999,PAL1,0,R1001P
165.182,10.438,220358,ENCODING_START,n/a,n/a,0,-999,n/a,n/a,n/a,n/a,1,"[0, 0, 0]",-999,PAL1,0,R1001P
175.62,0.275,225577,STUDY_ORIENT,n/a,n/a,1,3,CHIN,n/a,BALL,CHIN,1,"[0, 0, 0]",-999,PAL1,0,R1001P
176.62,4.0,226077,STUDY_PAIR,n/a,wordpools/wordpool_EN.txt,1,3,CHIN,n/a,BALL,CHIN,1,"[0, 0, 0]",-999,PAL1,0,R1001P
181.654,0.275,228593,STUDY_ORIENT,n/a,n/a,2,4,KEY,n/a,BEAN,KEY,1,"[0, 0, 0]",-999,PAL1,0,R1001P
182.521,4.0,229027,STUDY_PAIR,n/a,wordpools/wordpool_EN.txt,2,4,KEY,n/a,BEAN,KEY,1,"[0, 0, 0]",-999,PAL1,0,R1001P
187.539,0.275,231536,STUDY_ORIENT,n/a,n/a,3,1,CUP,COTTON,WING,CUP,1,"[0, 0, 0]",-999,PAL1,0,R1001P
188.522,4.0,232027,STUDY_PAIR,n/a,wordpools/wordpool_EN.txt,3,1,CUP,COTTON,WING,CUP,1,"[0, 0, 0]",-999,PAL1,0,R1001P
193.54,0.275,234536,STUDY_ORIENT,n/a,n/a,4,6,CONE,n/a,CONE,DRUM,1,"[0, 0, 0]",-999,PAL1,0,R1001P
194.557,4.0,235045,STUDY_PAIR,n/a,wordpools/wordpool_EN.txt,4,6,CONE,n/a,CONE,DRUM,1,"[0, 0, 0]",-999,PAL1,0,R1001P
199.591,0.275,237561,STUDY_ORIENT,n/a,n/a,5,5,FORK,n/a,SHEET,FORK,1,"[0, 0, 0]",-999,PAL1,0,R1001P
200.441,4.0,237986,STUDY_PAIR,n/a,wordpools/wordpool_EN.txt,5,5,FORK,n/a,SHEET,FORK,1,"[0, 0, 0]",-999,PAL1,0,R1001P
205.459,0.275,240495,STUDY_ORIENT,n/a,n/a,6,2,FORT,n/a,FORT,CAR,1,"[0, 0, 0]",-999,PAL1,0,R1001P
206.492,4.0,241012,STUDY_PAIR,n/a,wordpools/wordpool_EN.txt,6,2,FORT,n/a,FORT,CAR,1,"[0, 0, 0]",-999,PAL1,0,R1001P
210.493,1.0,243012,START,n/a,n/a,-999,-999,n/a,n/a,n/a,n/a,1,"[-999, -999, -999]",-999,PAL1,0,R1001P
211.493,0.017,243512,MATH_START,n/a,n/a,-999,-999,n/a,n/a,n/a,n/a,1,"[0, 0, 0]",-999,PAL1,0,R1001P
211.51,10.085,243521,PROB,10.063,n/a,-999,-999,n/a,n/a,n/a,n/a,1,"[9, 4, 8]",21,PAL1,0,R1001P
221.595,12.738,248563,PROB,12.738,n/a,-999,-999,n/a,n/a,n/a,n/a,1,"[9, 5, 5]",19,PAL1,0,R1001P
234.333,0.015,254931,STOP,n/a,n/a,-999,-999,n/a,n/a,n/a,n/a,1,"[-999, -999, -999]",-999,PAL1,0,R1001P
234.348,0.0,254939,MATH_END,n/a,n/a,-999,-999,n/a,n/a,n/a,n/a,1,"[0, 0, 0]",-999,PAL1,0,R1001P
234.348,0.016,254939,TEST_START,n/a,n/a,-999,-999,n/a,n/a,n/a,n/a,1,"[0, 0, 0]",-999,PAL1,0,R1001P
234.364,0.275,254947,TEST_ORIENT,n/a,n/a,3,1,CUP,COTTON,WING,CUP,1,"[0, 0, 0]",-999,PAL1,0,R1001P
235.181,4.0,255355,TEST_PROBE,n/a,wordpools/wordpool_EN.txt,3,1,CUP,COTTON,WING,CUP,1,"[0, 0, 0]",-999,PAL1,0,R1001P
235.182,2.37,255356,REC_START,n/a,n/a,3,-999,n/a,COTTON,n/a,n/a,1,"[0, 0, 0]",-999,PAL1,0,R1001P
237.552,0.425,256541,REC_EVENT,2.37,n/a,3,1,CUP,<>,WING,CUP,1,"[0, 0, 0]",-999,PAL1,0,R1001P
237.977,2.213,256753,REC_EVENT,2.795,n/a,3,1,CUP,COTTON,WING,CUP,1,"[0, 0, 0]",-999,PAL1,0,R1001P
240.19,0.009,257860,REC_END,n/a,n/a,3,-999,n/a,n/a,n/a,n/a,1,"[0, 0, 0]",-999,PAL1,0,R1001P
240.199,0.275,257864,TEST_ORIENT,n/a,n/a,6,2,FORT,n/a,FORT,CAR,1,"[0, 0, 0]",-999,PAL1,0,R1001P
241.066,4.0,258298,TEST_PROBE,n/a,wordpools/wordpool_EN.txt,6,2,FORT,n/a,FORT,CAR,1,"[0, 0, 0]",-999,PAL1,0,R1001P
241.066,5.015,258298,REC_START,n/a,n/a,6,-999,n/a,n/a,n/a,n/a,1,"[0, 0, 0]",-999,PAL1,0,R1001P
246.081,0.002,260805,REC_EVENT,5.015,n/a,6,2,FORT,<>,FORT,CAR,1,"[0, 0, 0]",-999,PAL1,0,R1001P
246.083,0.017,260806,REC_END,n/a,n/a,6,-999,n/a,n/a,n/a,n/a,1,"[0, 0, 0]",-999,PAL1,0,R1001P
246.1,0.275,260815,TEST_ORIENT,n/a,n/a,1,3,CHIN,n/a,BALL,CHIN,1,"[0, 0, 0]",-999,PAL1,0,R1001P
246.934,4.0,261232,TEST_PROBE,n/a,wordpools/wordpool_EN.txt,1,3,CHIN,n/a,BALL,CHIN,1,"[0, 0, 0]",-999,PAL1,0,R1001P
246.934,0.337,261232,REC_START,n/a,n/a,1,-999,n/a,n/a,n/a,n/a,1,"[0, 0, 0]",-999,PAL1,0,R1001P
247.271,4.68,261400,REC_EVENT,0.337,n/a,1,3,CHIN,<>,BALL,CHIN,1,"[0, 0, 0]",-999,PAL1,0,R1001P
251.951,0.017,263740,REC_END,n/a,n/a,1,-999,n/a,n/a,n/a,n/a,1,"[0, 0, 0]",-999,PAL1,0,R1001P
251.968,0.275,263748,TEST_ORIENT,n/a,n/a,2,4,KEY,n/a,BEAN,KEY,1,"[0, 0, 0]",-999,PAL1,0,R1001P
252.768,4.0,264148,TEST_PROBE,n/a,wordpools/wordpool_EN.txt,2,4,KEY,n/a,BEAN,KEY,1,"[0, 0, 0]",-999,PAL1,0,R1001P
252.769,5.025,264149,REC_START,n/a,n/a,2,-999,n/a,n/a,n/a,n/a,1,"[0, 0, 0]",-999,PAL1,0,R1001P
257.794,0.002,266661,REC_END,n/a,n/a,2,-999,n/a,n/a,n/a,n/a,1,"[0, 0, 0]",-999,PAL1,0,R1001P
257.796,0.006,266662,REC_EVENT,5.027,n/a,2,4,KEY,<>,BEAN,KEY,1,"[0, 0, 0]",-999,PAL1,0,R1001P
257.802,0.275,266665,TEST_ORIENT,n/a,n/a,5,5,FORK,n/a,SHEET,FORK,1,"[0, 0, 0]",-999,PAL1,0,R1001P
258.803,4.0,267166,TEST_PROBE,n/a,wordpools/wordpool_EN.txt,5,5,FORK,n/a,SHEET,FORK,1,"[0, 0, 0]",-999,PAL1,0,R1001P
258.803,5.015,267166,REC_START,n/a,n/a,5,-999,n/a,n/a,n/a,n/a,1,"[0, 0, 0]",-999,PAL1,0,R1001P
263.818,0.002,269673,REC_EVENT,5.015,n/a,5,5,FORK,<>,SHEET,FORK,1,"[0, 0, 0]",-999,PAL1,0,R1001P
263.82,0.017,269674,REC_END,n/a,n/a,5,-999,n/a,n/a,n/a,n/a,1,"[0, 0, 0]",-999,PAL1,0,R1001P
263.837,0.275,269683,TEST_ORIENT,n/a,n/a,4,6,CONE,n/a,CONE,DRUM,1,"[0, 0, 0]",-999,PAL1,0,R1001P
264.704,0.0,270116,REC_START,n/a,n/a,4,-999,n/a,n/a,n/a,n/a,1,"[0, 0, 0]",-999,PAL1,0,R1001P
264.704,4.0,270116,TEST_PROBE,n/a,wordpools/wordpool_EN.txt,4,6,CONE,n/a,CONE,DRUM,1,"[0, 0, 0]",-999,PAL1,0,R1001P
268.343,1.378,271936,REC_EVENT,3.639,n/a,4,6,CONE,<>,CONE,DRUM,1,"[0, 0, 0]",-999,PAL1,0,R1001P
269.721,11.708,272625,REC_END,n/a,n/a,4,-999,n/a,n/a,n/a,n/a,1,"[0, 0, 0]",-999,PAL1,0,R1001P
281.429,10.447,278478,ENCODING_START,n/a,n/a,0,-999,n/a,n/a,n/a,n/a,2,"[0, 0, 0]",-999,PAL1,0,R1001P
291.876,0.275,283701,STUDY_ORIENT,n/a,n/a,1,3,GOAT,n/a,GOAT,KITE,2,"[0, 0, 0]",-999,PAL1,0,R1001P
292.692,4.0,284109,STUDY_PAIR,n/a,wordpools/wordpool_EN.txt,1,3,GOAT,n/a,GOAT,KITE,2,"[0, 0, 0]",-999,PAL1,0,R1001P
297.71,0.275,286618,STUDY_ORIENT,n/a,n/a,2,2,HAT,COAT,PIT,HAT,2,"[0, 0, 0]",-999,PAL1,0,R1001P
298.594,4.0,287060,STUDY_PAIR,n/a,wordpools/wordpool_EN.txt,2,2,HAT,COAT,PIT,HAT,2,"[0, 0, 0]",-999,PAL1,0,R1001P
303.628,0.275,289577,STUDY_ORIENT,n/a,n/a,3,1,WHALE,PASS,WHALE,CAT,2,"[0, 0, 0]",-999,PAL1,0,R1001P
304.478,4.0,290002,STUDY_PAIR,n/a,wordpools/wordpool_EN.txt,3,1,WHALE,PASS,WHALE,CAT,2,"[0, 0, 0]",-999,PAL1,0,R1001P
309.512,0.275,292519,STUDY_ORIENT,n/a,n/a,4,4,GEESE,PEA,GEESE,MAP,2,"[0, 0, 0]",-999,PAL1,0,R1001P
310.463,4.0,292994,STUDY_PAIR,n/a,wordpools/wordpool_EN.txt,4,4,GEESE,PEA,GEESE,MAP,2,"[0, 0, 0]",-999,PAL1,0,R1001P
315.497,0.275,295511,STUDY_ORIENT,n/a,n/a,5,5,BAND,BATH,CLIFF,BAND,2,"[0, 0, 0]",-999,PAL1,0,R1001P
316.414,4.0,295970,STUDY_PAIR,n/a,wordpools/wordpool_EN.txt,5,5,BAND,BATH,CLIFF,BAND,2,"[0, 0, 0]",-999,PAL1,0,R1001P
321.448,0.275,298487,STUDY_ORIENT,n/a,n/a,6,6,ROOT,PASS,PLANT,ROOT,2,"[0, 0, 0]",-999,PAL1,0,R1001P
322.315,4.0,298920,STUDY_PAIR,n/a,wordpools/wordpool_EN.txt,6,6,ROOT,PASS,PLANT,ROOT,2,"[0, 0, 0]",-999,PAL1,0,R1001P
326.333,0.999,300929,START,n/a,n/a,-999,-999,n/a,n/a,n/a,n/a,2,"[-999, -999, -999]",-999,PAL1,0,R1001P
327.332,0.017,301428,MATH_START,n/a,n/a,-999,-999,n/a,n/a,n/a,n/a,2,"[0, 0, 0]",-999,PAL1,0,R1001P
327.349,10.719,301437,PROB,10.688,n/a,-999,-999,n/a,n/a,n/a,n/a,2,"[8, 9, 7]",25,PAL1,0,R1001P
338.068,8.235,306796,PROB,8.209,n/a,-999,-999,n/a,n/a,n/a,n/a,2,"[3, 9, 7]",19,PAL1,0,R1001P
346.303,31.319,310913,PROB,31.319,n/a,-999,-999,n/a,n/a,n/a,n/a,2,"[8, 1, 6]",15,PAL1,0,R1001P
377.622,0.003,326572,STOP,n/a,n/a,-999,-999,n/a,n/a,n/a,n/a,2,"[-999, -999, -999]",-999,PAL1,0,R1001P
377.625,0.0,326574,TEST_START,n/a,n/a,-999,-999,n/a,n/a,n/a,n/a,2,"[0, 0, 0]",-999,PAL1,0,R1001P
377.625,0.017,326574,MATH_END,n/a,n/a,-999,-999,n/a,n/a,n/a,n/a,2,"[0, 0, 0]",-999,PAL1,0,R1001P
377.642,0.275,326582,TEST_ORIENT,n/a,n/a,3,1,WHALE,PASS,WHALE,CAT,2,"[0, 0, 0]",-999,PAL1,0,R1001P
378.626,4.0,327074,TEST_PROBE,n/a,wordpools/wordpool_EN.txt,3,1,WHALE,PASS,WHALE,CAT,2,"[0, 0, 0]",-999,PAL1,0,R1001P
378.626,4.53,327074,REC_START,n/a,n/a,3,-999,n/a,PASS,n/a,n/a,2,"[0, 0, 0]",-999,PAL1,0,R1001P
383.156,0.487,329339,REC_EVENT,4.53,n/a,3,1,WHALE,PASS,WHALE,CAT,2,"[0, 0, 0]",-999,PAL1,0,R1001P
383.643,0.017,329582,REC_END,n/a,n/a,3,-999,n/a,n/a,n/a,n/a,2,"[0, 0, 0]",-999,PAL1,0,R1001P
383.66,0.275,329591,TEST_ORIENT,n/a,n/a,2,2,HAT,COAT,PIT,HAT,2,"[0, 0, 0]",-999,PAL1,0,R1001P
384.56,4.0,330041,TEST_PROBE,n/a,wordpools/wordpool_EN.txt,2,2,HAT,COAT,PIT,HAT,2,"[0, 0, 0]",-999,PAL1,0,R1001P
384.561,2.207,330041,REC_START,n/a,n/a,2,-999,n/a,COAT,n/a,n/a,2,"[0, 0, 0]",-999,PAL1,0,R1001P
386.768,1.725,331145,REC_EVENT,2.207,n/a,2,2,HAT,HAT,PIT,HAT,2,"[0, 0, 0]",-999,PAL1,0,R1001P
388.493,1.077,332007,REC_EVENT,3.932,n/a,2,2,HAT,COAT,PIT,HAT,2,"[0, 0, 0]",-999,PAL1,0,R1001P
389.57,0.008,332546,REC_END,n/a,n/a,2,-999,n/a,n/a,n/a,n/a,2,"[0, 0, 0]",-999,PAL1,0,R1001P
389.578,0.275,332550,TEST_ORIENT,n/a,n/a,1,3,GOAT,n/a,GOAT,KITE,2,"[0, 0, 0]",-999,PAL1,0,R1001P
390.378,4.0,332950,TEST_PROBE,n/a,wordpools/wordpool_EN.txt,1,3,GOAT,n/a,GOAT,KITE,2,"[0, 0, 0]",-999,PAL1,0,R1001P
390.378,5.015,332950,REC_START,n/a,n/a,1,-999,n/a,n/a,n/a,n/a,2,"[0, 0, 0]",-999,PAL1,0,R1001P
395.393,0.002,335457,REC_EVENT,5.015,n/a,1,3,GOAT,<>,GOAT,KITE,2,"[0, 0, 0]",-999,PAL1,0,R1001P
395.395,0.017,335458,REC_END,n/a,n/a,1,-999,n/a,n/a,n/a,n/a,2,"[0, 0, 0]",-999,PAL1,0,R1001P
395.412,0.275,335467,TEST_ORIENT,n/a,n/a,4,4,GEESE,PEA,GEESE,MAP,2,"[0, 0, 0]",-999,PAL1,0,R1001P
396.446,0.0,335984,REC_START,n/a,n/a,4,-999,n/a,PEA,n/a,n/a,2,"[0, 0, 0]",-999,PAL1,0,R1001P
396.446,4.0,335984,TEST_PROBE,n/a,wordpools/wordpool_EN.txt,4,4,GEESE,PEA,GEESE,MAP,2,"[0, 0, 0]",-999,PAL1,0,R1001P
398.524,2.939,337023,REC_EVENT,2.078,n/a,4,4,GEESE,PEA,GEESE,MAP,2,"[0, 0, 0]",-999,PAL1,0,R1001P
401.463,0.017,338492,REC_END,n/a,n/a,4,-999,n/a,n/a,n/a,n/a,2,"[0, 0, 0]",-999,PAL1,0,R1001P
401.48,0.275,338501,TEST_ORIENT,n/a,n/a,5,5,BAND,BATH,CLIFF,BAND,2,"[0, 0, 0]",-999,PAL1,0,R1001P
402.364,4.0,338942,TEST_PROBE,n/a,wordpools/wordpool_EN.txt,5,5,BAND,BATH,CLIFF,BAND,2,"[0, 0, 0]",-999,PAL1,0,R1001P
402.364,2.251,338942,REC_START,n/a,n/a,5,-999,n/a,BATH,n/a,n/a,2,"[0, 0, 0]",-999,PAL1,0,R1001P
404.615,2.766,340068,REC_EVENT,2.251,n/a,5,5,BAND,BATH,CLIFF,BAND,2,"[0, 0, 0]",-999,PAL1,0,R1001P
407.381,0.017,341451,REC_END,n/a,n/a,5,-999,n/a,n/a,n/a,n/a,2,"[0, 0, 0]",-999,PAL1,0,R1001P
407.398,0.275,341459,TEST_ORIENT,n/a,n/a,6,6,ROOT,PASS,PLANT,ROOT,2,"[0, 0, 0]",-999,PAL1,0,R1001P
408.331,4.0,341926,TEST_PROBE,n/a,wordpools/wordpool_EN.txt,6,6,ROOT,PASS,PLANT,ROOT,2,"[0, 0, 0]",-999,PAL1,0,R1001P
408.332,3.863,341926,REC_START,n/a,n/a,6,-999,n/a,PASS,n/a,n/a,2,"[0, 0, 0]",-999,PAL1,0,R1001P
412.195,1.145,343858,REC_EVENT,3.863,n/a,6,6,ROOT,PASS,PLANT,ROOT,2,"[0, 0, 0]",-999,PAL1,0,R1001P
413.34,10.945,344430,REC_END,n/a,n/a,6,-999,n/a,n/a,n/a,n/a,2,"[0, 0, 0]",-999,PAL1,0,R1001P
424.285,10.452,349902,ENCODING_START,n/a,n/a,0,-999,n/a,n/a,n/a,n/a,3,"[0, 0, 0]",-999,PAL1,0,R1001P
434.737,0.275,355128,STUDY_ORIENT,n/a,n/a,1,5,RAIN,PASS,EGG,RAIN,3,"[0, 0, 0]",-999,PAL1,0,R1001P
435.72,4.0,355620,STUDY_PAIR,n/a,wordpools/wordpool_EN.txt,1,5,RAIN,PASS,EGG,RAIN,3,"[0, 0, 0]",-999,PAL1,0,R1001P
440.754,0.275,358136,STUDY_ORIENT,n/a,n/a,2,6,HORSE,GEESE,HORSE,SNAIL,3,"[0, 0, 0]",-999,PAL1,0,R1001P
441.705,4.0,358612,STUDY_PAIR,n/a,wordpools/wordpool_EN.txt,2,6,HORSE,GEESE,HORSE,SNAIL,3,"[0, 0, 0]",-999,PAL1,0,R1001P
446.739,0.275,361129,STUDY_ORIENT,n/a,n/a,3,1,CLOTH,n/a,VINE,CLOTH,3,"[0, 0, 0]",-999,PAL1,0,R1001P
447.656,4.0,361587,STUDY_PAIR,n/a,wordpools/wordpool_EN.txt,3,1,CLOTH,n/a,VINE,CLOTH,3,"[0, 0, 0]",-999,PAL1,0,R1001P
452.69,0.275,364104,STUDY_ORIENT,n/a,n/a,4,2,BENCH,n/a,LAWN,BENCH,3,"[0, 0, 0]",-999,PAL1,0,R1001P
453.573,4.0,364546,STUDY_PAIR,n/a,wordpools/wordpool_EN.txt,4,2,BENCH,n/a,LAWN,BENCH,3,"[0, 0, 0]",-999,PAL1,0,R1001P
458.591,0.275,367054,STUDY_ORIENT,n/a,n/a,5,3,FLOOR,PASS,FLOOR,HOOF,3,"[0, 0, 0]",-999,PAL1,0,R1001P
459.425,4.0,367471,STUDY_PAIR,n/a,wordpools/wordpool_EN.txt,5,3,FLOOR,PASS,FLOOR,HOOF,3,"[0, 0, 0]",-999,PAL1,0,R1001P
464.459,0.275,369988,STUDY_ORIENT,n/a,n/a,6,4,SHRIMP,n/a,THUMB,SHRIMP,3,"[0, 0, 0]",-999,PAL1,0,R1001P
465.459,4.0,370488,STUDY_PAIR,n/a,wordpools/wordpool_EN.txt,6,4,SHRIMP,n/a,THUMB,SHRIMP,3,"[0, 0, 0]",-999,PAL1,0,R1001P
469.46,1.0,372489,START,n/a,n/a,-999,-999,n/a,n/a,n/a,n/a,3,"[-999, -999, -999]",-999,PAL1,0,R1001P
470.46,0.017,372989,MATH_START,n/a,n/a,-999,-999,n/a,n/a,n/a,n/a,3,"[0, 0, 0]",-999,PAL1,0,R1001P
470.477,8.368,372997,PROB,8.344,n/a,-999,-999,n/a,n/a,n/a,n/a,3,"[4, 1, 6]",11,PAL1,0,R1001P
478.845,6.401,377181,PROB,6.376,n/a,-999,-999,n/a,n/a,n/a,n/a,3,"[6, 2, 2]",10,PAL1,0,R1001P
485.246,14.823,380381,PROB,14.823,n/a,-999,-999,n/a,n/a,n/a,n/a,3,"[6, 7, 4]",17,PAL1,0,R1001P
500.069,0.013,387792,STOP,n/a,n/a,-999,-999,n/a,n/a,n/a,n/a,3,"[-999, -999, -999]",-999,PAL1,0,R1001P
500.082,0.0,387799,MATH_END,n/a,n/a,-999,-999,n/a,n/a,n/a,n/a,3,"[0, 0, 0]",-999,PAL1,0,R1001P
500.082,0.017,387799,TEST_START,n/a,n/a,-999,-999,n/a,n/a,n/a,n/a,3,"[0, 0, 0]",-999,PAL1,0,R1001P
500.099,0.275,387807,TEST_ORIENT,n/a,n/a,3,1,CLOTH,n/a,VINE,CLOTH,3,"[0, 0, 0]",-999,PAL1,0,R1001P
501.116,4.0,388316,TEST_PROBE,n/a,wordpools/wordpool_EN.txt,3,1,CLOTH,n/a,VINE,CLOTH,3,"[0, 0, 0]",-999,PAL1,0,R1001P
501.116,5.015,388316,REC_START,n/a,n/a,3,-999,n/a,n/a,n/a,n/a,3,"[0, 0, 0]",-999,PAL1,0,R1001P
506.131,0.002,390823,REC_EVENT,5.015,n/a,3,1,CLOTH,<>,VINE,CLOTH,3,"[0, 0, 0]",-999,PAL1,0,R1001P
506.133,0.017,390824,REC_END,n/a,n/a,3,-999,n/a,n/a,n/a,n/a,3,"[0, 0, 0]",-999,PAL1,0,R1001P
506.15,0.275,390833,TEST_ORIENT,n/a,n/a,4,2,BENCH,n/a,LAWN,BENCH,3,"[0, 0, 0]",-999,PAL1,0,R1001P
507.134,0.0,391325,REC_START,n/a,n/a,4,-999,n/a,n/a,n/a,n/a,3,"[0, 0, 0]",-999,PAL1,0,R1001P
507.134,4.0,391325,TEST_PROBE,n/a,wordpools/wordpool_EN.txt,4,2,BENCH,n/a,LAWN,BENCH,3,"[0, 0, 0]",-999,PAL1,0,R1001P
512.149,0.002,393832,REC_EVENT,5.015,n/a,4,2,BENCH,<>,LAWN,BENCH,3,"[0, 0, 0]",-999,PAL1,0,R1001P
512.151,0.017,393833,REC_END,n/a,n/a,4,-999,n/a,n/a,n/a,n/a,3,"[0, 0, 0]",-999,PAL1,0,R1001P
512.168,0.275,393842,TEST_ORIENT,n/a,n/a,5,3,FLOOR,PASS,FLOOR,HOOF,3,"[0, 0, 0]",-999,PAL1,0,R1001P
513.002,4.0,394259,TEST_PROBE,n/a,wordpools/wordpool_EN.txt,5,3,FLOOR,PASS,FLOOR,HOOF,3,"[0, 0, 0]",-999,PAL1,0,R1001P
513.002,4.525,394259,REC_START,n/a,n/a,5,-999,n/a,PASS,n/a,n/a,3,"[0, 0, 0]",-999,PAL1,0,R1001P
517.527,0.492,396521,REC_EVENT,4.525,n/a,5,3,FLOOR,PASS,FLOOR,HOOF,3,"[0, 0, 0]",-999,PAL1,0,R1001P
518.019,0.017,396767,REC_END,n/a,n/a,5,-999,n/a,n/a,n/a,n/a,3,"[0, 0, 0]",-999,PAL1,0,R1001P
518.036,0.275,396775,TEST_ORIENT,n/a,n/a,6,4,SHRIMP,n/a,THUMB,SHRIMP,3,"[0, 0, 0]",-999,PAL1,0,R1001P
519.053,4.0,397284,TEST_PROBE,n/a,wordpools/wordpool_EN.txt,6,4,SHRIMP,n/a,THUMB,SHRIMP,3,"[0, 0, 0]",-999,PAL1,0,R1001P
519.053,5.015,397284,REC_START,n/a,n/a,6,-999,n/a,n/a,n/a,n/a,3,"[0, 0, 0]",-999,PAL1,0,R1001P
524.068,0.002,399791,REC_EVENT,5.015,n/a,6,4,SHRIMP,<>,THUMB,SHRIMP,3,"[0, 0, 0]",-999,PAL1,0,R1001P
524.07,0.017,399792,REC_END,n/a,n/a,6,-999,n/a,n/a,n/a,n/a,3,"[0, 0, 0]",-999,PAL1,0,R1001P
524.087,0.275,399801,TEST_ORIENT,n/a,n/a,1,5,RAIN,PASS,EGG,RAIN,3,"[0, 0, 0]",-999,PAL1,0,R1001P
524.904,4.0,400209,TEST_PROBE,n/a,wordpools/wordpool_EN.txt,1,5,RAIN,PASS,EGG,RAIN,3,"[0, 0, 0]",-999,PAL1,0,R1001P
524.904,3.463,400209,REC_START,n/a,n/a,1,-999,n/a,PASS,n/a,n/a,3,"[0, 0, 0]",-999,PAL1,0,R1001P
528.367,1.554,401941,REC_EVENT,3.463,n/a,1,5,RAIN,PASS,EGG,RAIN,3,"[0, 0, 0]",-999,PAL1,0,R1001P
529.921,0.017,402718,REC_END,n/a,n/a,1,-999,n/a,n/a,n/a,n/a,3,"[0, 0, 0]",-999,PAL1,0,R1001P
529.938,0.275,402726,TEST_ORIENT,n/a,n/a,2,6,HORSE,GEESE,HORSE,SNAIL,3,"[0, 0, 0]",-999,PAL1,0,R1001P
530.788,4.0,403151,TEST_PROBE,n/a,wordpools/wordpool_EN.txt,2,6,HORSE,GEESE,HORSE,SNAIL,3,"[0, 0, 0]",-999,PAL1,0,R1001P
530.789,3.077,403152,REC_START,n/a,n/a,2,-999,n/a,GEESE,n/a,n/a,3,"[0, 0, 0]",-999,PAL1,0,R1001P
533.866,1.923,404690,REC_EVENT,3.077,n/a,2,6,HORSE,GEESE,HORSE,SNAIL,3,"[0, 0, 0]",-999,PAL1,0,R1001P
535.789,2.456,405651,REC_END,n/a,n/a,2,-999,n/a,n/a,n/a,n/a,3,"[0, 0, 0]",-999,PAL1,0,R1001P
538.245,10.447,406879,ENCODING_START,n/a,n/a,0,-999,n/a,n/a,n/a,n/a,4,"[0, 0, 0]",-999,PAL1,0,R1001P
548.692,0.275,412103,STUDY_ORIENT,n/a,n/a,1,1,TAIL,n/a,TAIL,CASH,4,"[0, 0, 0]",-999,PAL1,0,R1001P
549.475,4.0,412494,STUDY_PAIR,n/a,wordpools/wordpool_EN.txt,1,1,TAIL,n/a,TAIL,CASH,4,"[0, 0, 0]",-999,PAL1,0,R1001P
554.493,0.275,415003,STUDY_ORIENT,n/a,n/a,2,4,CAPE,CART,CAPE,ROCK,4,"[0, 0, 0]",-999,PAL1,0,R1001P
555.276,4.0,415394,STUDY_PAIR,n/a,wordpools/wordpool_EN.txt,2,4,CAPE,CART,CAPE,ROCK,4,"[0, 0, 0]",-999,PAL1,0,R1001P
560.294,0.275,417903,STUDY_ORIENT,n/a,n/a,3,5,PLATE,SLATE,PLATE,TRAIN,4,"[0, 0, 0]",-999,PAL1,0,R1001P
561.211,4.0,418362,STUDY_PAIR,n/a,wordpools/wordpool_EN.txt,3,5,PLATE,SLATE,PLATE,TRAIN,4,"[0, 0, 0]",-999,PAL1,0,R1001P
566.245,0.275,420879,STUDY_ORIENT,n/a,n/a,4,6,JUDGE,n/a,SLUSH,JUDGE,4,"[0, 0, 0]",-999,PAL1,0,R1001P
567.095,4.0,421304,STUDY_PAIR,n/a,wordpools/wordpool_EN.txt,4,6,JUDGE,n/a,SLUSH,JUDGE,4,"[0, 0, 0]",-999,PAL1,0,R1001P
572.113,0.275,423812,STUDY_ORIENT,n/a,n/a,5,3,BIRD,n/a,BIRD,BLOOM,4,"[0, 0, 0]",-999,PAL1,0,R1001P
573.03,4.0,424271,STUDY_PAIR,n/a,wordpools/wordpool_EN.txt,5,3,BIRD,n/a,BIRD,BLOOM,4,"[0, 0, 0]",-999,PAL1,0,R1001P
578.064,0.275,426788,STUDY_ORIENT,n/a,n/a,6,2,CART,PASS,CART,SEA,4,"[0, 0, 0]",-999,PAL1,0,R1001P
578.964,4.0,427238,STUDY_PAIR,n/a,wordpools/wordpool_EN.txt,6,2,CART,PASS,CART,SEA,4,"[0, 0, 0]",-999,PAL1,0,R1001P
582.966,0.999,429239,START,n/a,n/a,-999,-999,n/a,n/a,n/a,n/a,4,"[-999, -999, -999]",-999,PAL1,0,R1001P
583.965,0.017,429738,MATH_START,n/a,n/a,-999,-999,n/a,n/a,n/a,n/a,4,"[0, 0, 0]",-999,PAL1,0,R1001P
583.982,16.22,429747,PROB,16.191,n/a,-999,-999,n/a,n/a,n/a,n/a,4,"[6, 8, 5]",17,PAL1,0,R1001P
600.202,8.579,437856,PROB,8.579,n/a,-999,-999,n/a,n/a,n/a,n/a,4,"[6, 9, 4]",19,PAL1,0,R1001P
608.781,0.005,442145,STOP,n/a,n/a,-999,-999,n/a,n/a,n/a,n/a,4,"[-999, -999, -999]",-999,PAL1,0,R1001P
608.786,0.0,442148,MATH_END,n/a,n/a,-999,-999,n/a,n/a,n/a,n/a,4,"[0, 0, 0]",-999,PAL1,0,R1001P
608.786,0.017,442148,TEST_START,n/a,n/a,-999,-999,n/a,n/a,n/a,n/a,4,"[0, 0, 0]",-999,PAL1,0,R1001P
608.803,0.275,442156,TEST_ORIENT,n/a,n/a,1,1,TAIL,n/a,TAIL,CASH,4,"[0, 0, 0]",-999,PAL1,0,R1001P
609.704,4.0,442607,TEST_PROBE,n/a,wordpools/wordpool_EN.txt,1,1,TAIL,n/a,TAIL,CASH,4,"[0, 0, 0]",-999,PAL1,0,R1001P
609.704,5.015,442607,REC_START,n/a,n/a,1,-999,n/a,n/a,n/a,n/a,4,"[0, 0, 0]",-999,PAL1,0,R1001P
614.719,0.002,445114,REC_EVENT,5.015,n/a,1,1,TAIL,<>,TAIL,CASH,4,"[0, 0, 0]",-999,PAL1,0,R1001P
614.721,0.017,445115,REC_END,n/a,n/a,1,-999,n/a,n/a,n/a,n/a,4,"[0, 0, 0]",-999,PAL1,0,R1001P
614.738,0.275,445124,TEST_ORIENT,n/a,n/a,6,2,CART,PASS,CART,SEA,4,"[0, 0, 0]",-999,PAL1,0,R1001P
615.605,0.0,445557,REC_EVENT,0.0,n/a,6,2,CART,<>,CART,SEA,4,"[0, 0, 0]",-999,PAL1,0,R1001P
615.605,4.0,445557,TEST_PROBE,n/a,wordpools/wordpool_EN.txt,6,2,CART,PASS,CART,SEA,4,"[0, 0, 0]",-999,PAL1,0,R1001P
615.605,3.042,445557,REC_START,n/a,n/a,6,-999,n/a,PASS,n/a,n/a,4,"[0, 0, 0]",-999,PAL1,0,R1001P
618.647,1.975,447078,REC_EVENT,3.042,n/a,6,2,CART,PASS,CART,SEA,4,"[0, 0, 0]",-999,PAL1,0,R1001P
620.622,0.017,448066,REC_END,n/a,n/a,6,-999,n/a,n/a,n/a,n/a,4,"[0, 0, 0]",-999,PAL1,0,R1001P
620.639,0.275,448074,TEST_ORIENT,n/a,n/a,5,3,BIRD,n/a,BIRD,BLOOM,4,"[0, 0, 0]",-999,PAL1,0,R1001P
621.439,4.0,448474,TEST_PROBE,n/a,wordpools/wordpool_EN.txt,5,3,BIRD,n/a,BIRD,BLOOM,4,"[0, 0, 0]",-999,PAL1,0,R1001P
621.44,5.009,448475,REC_START,n/a,n/a,5,-999,n/a,n/a,n/a,n/a,4,"[0, 0, 0]",-999,PAL1,0,R1001P
626.449,0.0,450979,REC_EVENT,5.009,n/a,5,3,BIRD,<>,BIRD,BLOOM,4,"[0, 0, 0]",-999,PAL1,0,R1001P
626.449,0.008,450979,REC_END,n/a,n/a,5,-999,n/a,n/a,n/a,n/a,4,"[0, 0, 0]",-999,PAL1,0,R1001P
626.457,0.275,450983,TEST_ORIENT,n/a,n/a,2,4,CAPE,CART,CAPE,ROCK,4,"[0, 0, 0]",-999,PAL1,0,R1001P
627.307,4.0,451408,TEST_PROBE,n/a,wordpools/wordpool_EN.txt,2,4,CAPE,CART,CAPE,ROCK,4,"[0, 0, 0]",-999,PAL1,0,R1001P
627.307,1.817,451408,REC_START,n/a,n/a,2,-999,n/a,CART,n/a,n/a,4,"[0, 0, 0]",-999,PAL1,0,R1001P
629.124,3.2,452316,REC_EVENT,1.817,n/a,2,4,CAPE,CART,CAPE,ROCK,4,"[0, 0, 0]",-999,PAL1,0,R1001P
632.324,0.017,453916,REC_END,n/a,n/a,2,-999,n/a,n/a,n/a,n/a,4,"[0, 0, 0]",-999,PAL1,0,R1001P
632.341,0.275,453925,TEST_ORIENT,n/a,n/a,3,5,PLATE,SLATE,PLATE,TRAIN,4,"[0, 0, 0]",-999,PAL1,0,R1001P
633.241,4.0,454375,TEST_PROBE,n/a,wordpools/wordpool_EN.txt,3,5,PLATE,SLATE,PLATE,TRAIN,4,"[0, 0, 0]",-999,PAL1,0,R1001P
633.242,3.956,454375,REC_START,n/a,n/a,3,-999,n/a,SLATE,n/a,n/a,4,"[0, 0, 0]",-999,PAL1,0,R1001P
637.198,1.054,456353,REC_EVENT,3.956,n/a,3,5,PLATE,SLATE,PLATE,TRAIN,4,"[0, 0, 0]",-999,PAL1,0,R1001P
638.252,0.007,456880,REC_END,n/a,n/a,3,-999,n/a,n/a,n/a,n/a,4,"[0, 0, 0]",-999,PAL1,0,R1001P
638.259,0.275,456884,TEST_ORIENT,n/a,n/a,4,6,JUDGE,n/a,SLUSH,JUDGE,4,"[0, 0, 0]",-999,PAL1,0,R1001P
639.126,4.0,457317,TEST_PROBE,n/a,wordpools/wordpool_EN.txt,4,6,JUDGE,n/a,SLUSH,JUDGE,4,"[0, 0, 0]",-999,PAL1,0,R1001P
639.127,5.015,457318,REC_START,n/a,n/a,4,-999,n/a,n/a,n/a,n/a,4,"[0, 0, 0]",-999,PAL1,0,R1001P
644.142,0.001,459825,REC_EVENT,5.015,n/a,4,6,JUDGE,<>,SLUSH,JUDGE,4,"[0, 0, 0]",-999,PAL1,0,R1001P
644.143,22.887,459826,REC_END,n/a,n/a,4,-999,n/a,n/a,n/a,n/a,4,"[0, 0, 0]",-999,PAL1,0,R1001P
667.03,10.453,471268,ENCODING_START,n/a,n/a,0,-999,n/a,n/a,n/a,n/a,5,"[0, 0, 0]",-999,PAL1,0,R1001P
677.483,0.275,476495,STUDY_ORIENT,n/a,n/a,1,3,CAGE,n/a,STEAK,CAGE,5,"[0, 0, 0]",-999,PAL1,0,R1001P
678.317,4.0,476912,STUDY_PAIR,n/a,wordpools/wordpool_EN.txt,1,3,CAGE,n/a,STEAK,CAGE,5,"[0, 0, 0]",-999,PAL1,0,R1001P
683.351,0.275,479428,STUDY_ORIENT,n/a,n/a,2,2,MAIL,n/a,EEL,MAIL,5,"[0, 0, 0]",-999,PAL1,0,R1001P
684.318,4.0,479912,STUDY_PAIR,n/a,wordpools/wordpool_EN.txt,2,2,MAIL,n/a,EEL,MAIL,5,"[0, 0, 0]",-999,PAL1,0,R1001P
689.352,0.275,482429,STUDY_ORIENT,n/a,n/a,3,1,SPRING,n/a,SPRING,STAR,5,"[0, 0, 0]",-999,PAL1,0,R1001P
690.252,4.0,482879,STUDY_PAIR,n/a,wordpools/wordpool_EN.txt,3,1,SPRING,n/a,SPRING,STAR,5,"[0, 0, 0]",-999,PAL1,0,R1001P
695.27,0.275,485388,STUDY_ORIENT,n/a,n/a,4,6,TRAY,n/a,LAND,TRAY,5,"[0, 0, 0]",-999,PAL1,0,R1001P
696.22,4.0,485863,STUDY_PAIR,n/a,wordpools/wordpool_EN.txt,4,6,TRAY,n/a,LAND,TRAY,5,"[0, 0, 0]",-999,PAL1,0,R1001P
701.238,0.275,488372,STUDY_ORIENT,n/a,n/a,5,5,SNOW,n/a,SNOW,BRIDGE,5,"[0, 0, 0]",-999,PAL1,0,R1001P
702.071,4.0,488788,STUDY_PAIR,n/a,wordpools/wordpool_EN.txt,5,5,SNOW,n/a,SNOW,BRIDGE,5,"[0, 0, 0]",-999,PAL1,0,R1001P
707.089,0.275,491297,STUDY_ORIENT,n/a,n/a,6,4,HAWK,n/a,HAWK,PASTE,5,"[0, 0, 0]",-999,PAL1,0,R1001P
708.023,4.0,491764,STUDY_PAIR,n/a,wordpools/wordpool_EN.txt,6,4,HAWK,n/a,HAWK,PASTE,5,"[0, 0, 0]",-999,PAL1,0,R1001P
712.04,1.0,493772,START,n/a,n/a,-999,-999,n/a,n/a,n/a,n/a,5,"[-999, -999, -999]",-999,PAL1,0,R1001P
713.04,0.017,494272,MATH_START,n/a,n/a,-999,-999,n/a,n/a,n/a,n/a,5,"[0, 0, 0]",-999,PAL1,0,R1001P
713.057,270.884,494281,PROB,270.884,n/a,-999,-999,n/a,n/a,n/a,n/a,5,"[9, 2, 6]",17,PAL1,0,R1001P
983.941,0.018,629715,STOP,n/a,n/a,-999,-999,n/a,n/a,n/a,n/a,5,"[-999, -999, -999]",-999,PAL1,0,R1001P
983.959,0.0,629724,MATH_END,n/a,n/a,-999,-999,n/a,n/a,n/a,n/a,5,"[0, 0, 0]",-999,PAL1,0,R1001P
983.959,0.017,629724,TEST_START,n/a,n/a,-999,-999,n/a,n/a,n/a,n/a,5,"[0, 0, 0]",-999,PAL1,0,R1001P
983.976,0.275,629733,TEST_ORIENT,n/a,n/a,3,1,SPRING,n/a,SPRING,STAR,5,"[0, 0, 0]",-999,PAL1,0,R1001P
984.926,4.0,630208,TEST_PROBE,n/a,wordpools/wordpool_EN.txt,3,1,SPRING,n/a,SPRING,STAR,5,"[0, 0, 0]",-999,PAL1,0,R1001P
984.926,3.968,630208,REC_START,n/a,n/a,3,-999,n/a,n/a,n/a,n/a,5,"[0, 0, 0]",-999,PAL1,0,R1001P
988.894,1.049,632192,REC_EVENT,3.968,n/a,3,1,SPRING,<>,SPRING,STAR,5,"[0, 0, 0]",-999,PAL1,0,R1001P
989.943,0.017,632716,REC_END,n/a,n/a,3,-999,n/a,n/a,n/a,n/a,5,"[0, 0, 0]",-999,PAL1,0,R1001P
989.96,0.275,632725,TEST_ORIENT,n/a,n/a,2,2,MAIL,n/a,EEL,MAIL,5,"[0, 0, 0]",-999,PAL1,0,R1001P
990.794,4.0,633142,TEST_PROBE,n/a,wordpools/wordpool_EN.txt,2,2,MAIL,n/a,EEL,MAIL,5,"[0, 0, 0]",-999,PAL1,0,R1001P
990.794,1.529,633142,REC_START,n/a,n/a,2,-999,n/a,n/a,n/a,n/a,5,"[0, 0, 0]",-999,PAL1,0,R1001P
992.323,3.488,633906,REC_EVENT,1.529,n/a,2,2,MAIL,<>,EEL,MAIL,5,"[0, 0, 0]",-999,PAL1,0,R1001P
995.811,0.017,635650,REC_END,n/a,n/a,2,-999,n/a,n/a,n/a,n/a,5,"[0, 0, 0]",-999,PAL1,0,R1001P
995.828,0.275,635659,TEST_ORIENT,n/a,n/a,1,3,CAGE,n/a,STEAK,CAGE,5,"[0, 0, 0]",-999,PAL1,0,R1001P
996.878,4.0,636184,TEST_PROBE,n/a,wordpools/wordpool_EN.txt,1,3,CAGE,n/a,STEAK,CAGE,5,"[0, 0, 0]",-999,PAL1,0,R1001P
996.879,2.524,636184,REC_START,n/a,n/a,1,-999,n/a,n/a,n/a,n/a,5,"[0, 0, 0]",-999,PAL1,0,R1001P
999.403,2.485,637446,REC_EVENT,2.524,n/a,1,3,CAGE,<>,STEAK,CAGE,5,"[0, 0, 0]",-999,PAL1,0,R1001P
1001.888,0.008,638688,REC_END,n/a,n/a,1,-999,n/a,n/a,n/a,n/a,5,"[0, 0, 0]",-999,PAL1,0,R1001P
1001.896,0.275,638692,TEST_ORIENT,n/a,n/a,6,4,HAWK,n/a,HAWK,PASTE,5,"[0, 0, 0]",-999,PAL1,0,R1001P
1002.713,4.0,639101,TEST_PROBE,n/a,wordpools/wordpool_EN.txt,6,4,HAWK,n/a,HAWK,PASTE,5,"[0, 0, 0]",-999,PAL1,0,R1001P
1002.713,5.015,639101,REC_START,n/a,n/a,6,-999,n/a,n/a,n/a,n/a,5,"[0, 0, 0]",-999,PAL1,0,R1001P
1007.728,0.002,641608,REC_EVENT,5.015,n/a,6,4,HAWK,<>,HAWK,PASTE,5,"[0, 0, 0]",-999,PAL1,0,R1001P
1007.73,0.017,641609,REC_END,n/a,n/a,6,-999,n/a,n/a,n/a,n/a,5,"[0, 0, 0]",-999,PAL1,0,R1001P
1007.747,0.275,641618,TEST_ORIENT,n/a,n/a,5,5,SNOW,n/a,SNOW,BRIDGE,5,"[0, 0, 0]",-999,PAL1,0,R1001P
1008.697,4.0,642093,TEST_PROBE,n/a,wordpools/wordpool_EN.txt,5,5,SNOW,n/a,SNOW,BRIDGE,5,"[0, 0, 0]",-999,PAL1,0,R1001P
1008.698,5.009,642093,REC_START,n/a,n/a,5,-999,n/a,n/a,n/a,n/a,5,"[0, 0, 0]",-999,PAL1,0,R1001P
1013.707,0.0,644598,REC_END,n/a,n/a,5,-999,n/a,n/a,n/a,n/a,5,"[0, 0, 0]",-999,PAL1,0,R1001P
1013.707,0.008,644598,REC_EVENT,5.009,n/a,5,5,SNOW,<>,SNOW,BRIDGE,5,"[0, 0, 0]",-999,PAL1,0,R1001P
1013.715,0.275,644602,TEST_ORIENT,n/a,n/a,4,6,TRAY,n/a,LAND,TRAY,5,"[0, 0, 0]",-999,PAL1,0,R1001P
1014.565,4.0,645027,TEST_PROBE,n/a,wordpools/wordpool_EN.txt,4,6,TRAY,n/a,LAND,TRAY,5,"[0, 0, 0]",-999,PAL1,0,R1001P
1014.566,5.026,645027,REC_START,n/a,n/a,4,-999,n/a,n/a,n/a,n/a,5,"[0, 0, 0]",-999,PAL1,0,R1001P
1019.592,0.001,647540,REC_END,n/a,n/a,4,-999,n/a,n/a,n/a,n/a,5,"[0, 0, 0]",-999,PAL1,0,R1001P
1019.593,3.644,647541,REC_EVENT,5.027,n/a,4,6,TRAY,<>,LAND,TRAY,5,"[0, 0, 0]",-999,PAL1,0,R1001P
1023.237,10.448,649362,ENCODING_START,n/a,n/a,0,-999,n/a,n/a,n/a,n/a,6,"[0, 0, 0]",-999,PAL1,0,R1001P
1033.685,0.275,654586,STUDY_ORIENT,n/a,n/a,1,1,CLOWN,n/a,CLOWN,BARN,6,"[0, 0, 0]",-999,PAL1,0,R1001P
1034.619,4.0,655053,STUDY_PAIR,n/a,wordpools/wordpool_EN.txt,1,1,CLOWN,n/a,CLOWN,BARN,6,"[0, 0, 0]",-999,PAL1,0,R1001P
1039.653,0.275,657570,STUDY_ORIENT,n/a,n/a,2,6,APE,n/a,APE,SEAT,6,"[0, 0, 0]",-999,PAL1,0,R1001P
1040.62,4.0,658053,STUDY_PAIR,n/a,wordpools/wordpool_EN.txt,2,6,APE,n/a,APE,SEAT,6,"[0, 0, 0]",-999,PAL1,0,R1001P
1045.638,0.275,660562,STUDY_ORIENT,n/a,n/a,3,3,WEED,n/a,WORLD,WEED,6,"[0, 0, 0]",-999,PAL1,0,R1001P
1046.555,4.0,661021,STUDY_PAIR,n/a,wordpools/wordpool_EN.txt,3,3,WEED,n/a,WORLD,WEED,6,"[0, 0, 0]",-999,PAL1,0,R1001P
1051.589,0.275,663538,STUDY_ORIENT,n/a,n/a,4,2,ELF,CHEF,ELF,GOLD,6,"[0, 0, 0]",-999,PAL1,0,R1001P
1052.506,4.0,663996,STUDY_PAIR,n/a,wordpools/wordpool_EN.txt,4,2,ELF,CHEF,ELF,GOLD,6,"[0, 0, 0]",-999,PAL1,0,R1001P
1057.54,0.275,666513,STUDY_ORIENT,n/a,n/a,5,5,PLANE,n/a,WHEEL,PLANE,6,"[0, 0, 0]",-999,PAL1,0,R1001P
1058.424,4.0,666955,STUDY_PAIR,n/a,wordpools/wordpool_EN.txt,5,5,PLANE,n/a,WHEEL,PLANE,6,"[0, 0, 0]",-999,PAL1,0,R1001P
1063.458,0.275,669472,STUDY_ORIENT,n/a,n/a,6,4,RAT,SLACK,SLIME,RAT,6,"[0, 0, 0]",-999,PAL1,0,R1001P
1064.425,4.0,669955,STUDY_PAIR,n/a,wordpools/wordpool_EN.txt,6,4,RAT,SLACK,SLIME,RAT,6,"[0, 0, 0]",-999,PAL1,0,R1001P
1068.443,0.999,671964,START,n/a,n/a,-999,-999,n/a,n/a,n/a,n/a,6,"[-999, -999, -999]",-999,PAL1,0,R1001P
1069.442,0.017,672464,MATH_START,n/a,n/a,-999,-999,n/a,n/a,n/a,n/a,6,"[0, 0, 0]",-999,PAL1,0,R1001P
1069.459,8.435,672472,PROB,8.404,n/a,-999,-999,n/a,n/a,n/a,n/a,6,"[7, 1, 2]",10,PAL1,0,R1001P
1077.894,10.402,676689,PROB,10.368,n/a,-999,-999,n/a,n/a,n/a,n/a,6,"[8, 3, 7]",18,PAL1,0,R1001P
1088.296,8.829,681890,PROB,8.829,n/a,-999,-999,n/a,n/a,n/a,n/a,6,"[9, 3, 9]",21,PAL1,0,R1001P
1097.125,0.006,686304,STOP,n/a,n/a,-999,-999,n/a,n/a,n/a,n/a,6,"[-999, -999, -999]",-999,PAL1,0,R1001P
1097.131,0.0,686307,MATH_END,n/a,n/a,-999,-999,n/a,n/a,n/a,n/a,6,"[0, 0, 0]",-999,PAL1,0,R1001P
1097.131,0.017,686307,TEST_START,n/a,n/a,-999,-999,n/a,n/a,n/a,n/a,6,"[0, 0, 0]",-999,PAL1,0,R1001P
1097.148,0.275,686316,TEST_ORIENT,n/a,n/a,1,1,CLOWN,n/a,CLOWN,BARN,6,"[0, 0, 0]",-999,PAL1,0,R1001P
1097.981,4.0,686732,TEST_PROBE,n/a,wordpools/wordpool_EN.txt,1,1,CLOWN,n/a,CLOWN,BARN,6,"[0, 0, 0]",-999,PAL1,0,R1001P
1097.982,5.003,686733,REC_START,n/a,n/a,1,-999,n/a,n/a,n/a,n/a,6,"[0, 0, 0]",-999,PAL1,0,R1001P
1102.985,0.005,689234,REC_EVENT,5.003,n/a,1,1,CLOWN,<>,CLOWN,BARN,6,"[0, 0, 0]",-999,PAL1,0,R1001P
1102.99,0.009,689237,REC_END,n/a,n/a,1,-999,n/a,n/a,n/a,n/a,6,"[0, 0, 0]",-999,PAL1,0,R1001P
1102.999,0.275,689241,TEST_ORIENT,n/a,n/a,4,2,ELF,CHEF,ELF,GOLD,6,"[0, 0, 0]",-999,PAL1,0,R1001P
1103.799,4.0,689641,TEST_PROBE,n/a,wordpools/wordpool_EN.txt,4,2,ELF,CHEF,ELF,GOLD,6,"[0, 0, 0]",-999,PAL1,0,R1001P
1103.8,1.561,689642,REC_START,n/a,n/a,4,-999,n/a,CHEF,n/a,n/a,6,"[0, 0, 0]",-999,PAL1,0,R1001P
1105.361,0.361,690422,REC_EVENT,1.561,n/a,4,2,ELF,ELF,ELF,GOLD,6,"[0, 0, 0]",-999,PAL1,0,R1001P
1105.722,0.073,690603,REC_EVENT,1.922,n/a,4,2,ELF,<>,ELF,GOLD,6,"[0, 0, 0]",-999,PAL1,0,R1001P
1105.795,3.021,690639,REC_EVENT,1.995,n/a,4,2,ELF,CHEF,ELF,GOLD,6,"[0, 0, 0]",-999,PAL1,0,R1001P
1108.816,0.017,692150,REC_END,n/a,n/a,4,-999,n/a,n/a,n/a,n/a,6,"[0, 0, 0]",-999,PAL1,0,R1001P
1108.833,0.275,692158,TEST_ORIENT,n/a,n/a,3,3,WEED,n/a,WORLD,WEED,6,"[0, 0, 0]",-999,PAL1,0,R1001P
1109.717,4.0,692600,TEST_PROBE,n/a,wordpools/wordpool_EN.txt,3,3,WEED,n/a,WORLD,WEED,6,"[0, 0, 0]",-999,PAL1,0,R1001P
1109.718,5.015,692601,REC_START,n/a,n/a,3,-999,n/a,n/a,n/a,n/a,6,"[0, 0, 0]",-999,PAL1,0,R1001P
1114.733,0.001,695108,REC_EVENT,5.015,n/a,3,3,WEED,<>,WORLD,WEED,6,"[0, 0, 0]",-999,PAL1,0,R1001P
1114.734,0.017,695108,REC_END,n/a,n/a,3,-999,n/a,n/a,n/a,n/a,6,"[0, 0, 0]",-999,PAL1,0,R1001P
1114.751,0.275,695117,TEST_ORIENT,n/a,n/a,6,4,RAT,SLACK,SLIME,RAT,6,"[0, 0, 0]",-999,PAL1,0,R1001P
1115.601,4.0,695542,TEST_PROBE,n/a,wordpools/wordpool_EN.txt,6,4,RAT,SLACK,SLIME,RAT,6,"[0, 0, 0]",-999,PAL1,0,R1001P
1115.602,3.271,695542,REC_START,n/a,n/a,6,-999,n/a,SLACK,n/a,n/a,6,"[0, 0, 0]",-999,PAL1,0,R1001P
1118.873,0.305,697178,REC_EVENT,3.271,n/a,6,4,RAT,RAT,SLIME,RAT,6,"[0, 0, 0]",-999,PAL1,0,R1001P
1119.178,1.424,697330,REC_EVENT,3.576,n/a,6,4,RAT,SLACK,SLIME,RAT,6,"[0, 0, 0]",-999,PAL1,0,R1001P
1120.602,0.017,698042,REC_END,n/a,n/a,6,-999,n/a,n/a,n/a,n/a,6,"[0, 0, 0]",-999,PAL1,0,R1001P
1120.619,0.275,698051,TEST_ORIENT,n/a,n/a,5,5,PLANE,n/a,WHEEL,PLANE,6,"[0, 0, 0]",-999,PAL1,0,R1001P
1121.452,4.0,698467,TEST_PROBE,n/a,wordpools/wordpool_EN.txt,5,5,PLANE,n/a,WHEEL,PLANE,6,"[0, 0, 0]",-999,PAL1,0,R1001P
1121.453,5.008,698468,REC_START,n/a,n/a,5,-999,n/a,n/a,n/a,n/a,6,"[0, 0, 0]",-999,PAL1,0,R1001P
1126.461,0.001,700972,REC_END,n/a,n/a,5,-999,n/a,n/a,n/a,n/a,6,"[0, 0, 0]",-999,PAL1,0,R1001P
1126.462,0.008,700972,REC_EVENT,5.009,n/a,5,5,PLANE,<>,WHEEL,PLANE,6,"[0, 0, 0]",-999,PAL1,0,R1001P
1126.47,0.275,700976,TEST_ORIENT,n/a,n/a,2,6,APE,n/a,APE,SEAT,6,"[0, 0, 0]",-999,PAL1,0,R1001P
1127.504,4.0,701493,TEST_PROBE,n/a,wordpools/wordpool_EN.txt,2,6,APE,n/a,APE,SEAT,6,"[0, 0, 0]",-999,PAL1,0,R1001P
1127.504,5.017,701493,REC_START,n/a,n/a,2,-999,n/a,n/a,n/a,n/a,6,"[0, 0, 0]",-999,PAL1,0,R1001P
1132.521,0.004,704002,REC_END,n/a,n/a,2,-999,n/a,n/a,n/a,n/a,6,"[0, 0, 0]",-999,PAL1,0,R1001P
1132.525,3.24,704004,REC_EVENT,5.021,n/a,2,6,APE,<>,APE,SEAT,6,"[0, 0, 0]",-999,PAL1,0,R1001P
1135.765,10.442,705623,ENCODING_START,n/a,n/a,0,-999,n/a,n/a,n/a,n/a,7,"[0, 0, 0]",-999,PAL1,0,R1001P
1146.207,0.275,710844,STUDY_ORIENT,n/a,n/a,1,3,HOLE,SQUARE,SQUARE,HOLE,7,"[0, 0, 0]",-999,PAL1,0,R1001P
1147.174,4.0,711328,STUDY_PAIR,n/a,wordpools/wordpool_EN.txt,1,3,HOLE,SQUARE,SQUARE,HOLE,7,"[0, 0, 0]",-999,PAL1,0,R1001P
1152.208,0.275,713844,STUDY_ORIENT,n/a,n/a,2,2,BOMB,SHELL,BOMB,BANK,7,"[0, 0, 0]",-999,PAL1,0,R1001P
1153.208,4.0,714344,STUDY_PAIR,n/a,wordpools/wordpool_EN.txt,2,2,BOMB,SHELL,BOMB,BANK,7,"[0, 0, 0]",-999,PAL1,0,R1001P
1158.226,0.275,716853,STUDY_ORIENT,n/a,n/a,3,1,PEARL,HOLE,PEARL,FRUIT,7,"[0, 0, 0]",-999,PAL1,0,R1001P
1159.11,4.0,717295,STUDY_PAIR,n/a,wordpools/wordpool_EN.txt,3,1,PEARL,HOLE,PEARL,FRUIT,7,"[0, 0, 0]",-999,PAL1,0,R1001P
1164.144,0.275,719812,STUDY_ORIENT,n/a,n/a,4,4,STORE,POLE,OWL,STORE,7,"[0, 0, 0]",-999,PAL1,0,R1001P
1165.144,4.0,720312,STUDY_PAIR,n/a,wordpools/wordpool_EN.txt,4,4,STORE,POLE,OWL,STORE,7,"[0, 0, 0]",-999,PAL1,0,R1001P
1170.162,0.275,722821,STUDY_ORIENT,n/a,n/a,5,5,WORM,PASS,WORM,WALL,7,"[0, 0, 0]",-999,PAL1,0,R1001P
1171.095,4.0,723287,STUDY_PAIR,n/a,wordpools/wordpool_EN.txt,5,5,WORM,PASS,WORM,WALL,7,"[0, 0, 0]",-999,PAL1,0,R1001P
1176.113,0.275,725796,STUDY_ORIENT,n/a,n/a,6,6,STREET,BITE,STREET,LAMP,7,"[0, 0, 0]",-999,PAL1,0,R1001P
1177.08,4.0,726280,STUDY_PAIR,n/a,wordpools/wordpool_EN.txt,6,6,STREET,BITE,STREET,LAMP,7,"[0, 0, 0]",-999,PAL1,0,R1001P
1181.098,0.999,728289,START,n/a,n/a,-999,-999,n/a,n/a,n/a,n/a,7,"[-999, -999, -999]",-999,PAL1,0,R1001P
1182.097,0.017,728788,MATH_START,n/a,n/a,-999,-999,n/a,n/a,n/a,n/a,7,"[0, 0, 0]",-999,PAL1,0,R1001P
1182.114,10.619,728797,PROB,10.587,n/a,-999,-999,n/a,n/a,n/a,n/a,7,"[9, 7, 2]",18,PAL1,0,R1001P
1192.733,12.944,734106,PROB,12.944,n/a,-999,-999,n/a,n/a,n/a,n/a,7,"[1, 9, 7]",17,PAL1,0,R1001P
1205.677,0.008,740578,STOP,n/a,n/a,-999,-999,n/a,n/a,n/a,n/a,7,"[-999, -999, -999]",-999,PAL1,0,R1001P
1205.685,0.0,740582,MATH_END,n/a,n/a,-999,-999,n/a,n/a,n/a,n/a,7,"[0, 0, 0]",-999,PAL1,0,R1001P
1205.685,0.017,740582,TEST_START,n/a,n/a,-999,-999,n/a,n/a,n/a,n/a,7,"[0, 0, 0]",-999,PAL1,0,R1001P
1205.702,0.275,740590,TEST_ORIENT,n/a,n/a,3,1,PEARL,HOLE,PEARL,FRUIT,7,"[0, 0, 0]",-999,PAL1,0,R1001P
1206.569,0.0,741024,REC_START,n/a,n/a,3,-999,n/a,HOLE,n/a,n/a,7,"[0, 0, 0]",-999,PAL1,0,R1001P
1206.569,4.0,741024,TEST_PROBE,n/a,wordpools/wordpool_EN.txt,3,1,PEARL,HOLE,PEARL,FRUIT,7,"[0, 0, 0]",-999,PAL1,0,R1001P
1208.402,3.184,741940,REC_EVENT,1.833,n/a,3,1,PEARL,HOLE,PEARL,FRUIT,7,"[0, 0, 0]",-999,PAL1,0,R1001P
1211.586,0.017,743532,REC_END,n/a,n/a,3,-999,n/a,n/a,n/a,n/a,7,"[0, 0, 0]",-999,PAL1,0,R1001P
1211.603,0.275,743540,TEST_ORIENT,n/a,n/a,2,2,BOMB,SHELL,BOMB,BANK,7,"[0, 0, 0]",-999,PAL1,0,R1001P
1212.57,4.0,744024,TEST_PROBE,n/a,wordpools/wordpool_EN.txt,2,2,BOMB,SHELL,BOMB,BANK,7,"[0, 0, 0]",-999,PAL1,0,R1001P
1212.571,2.8,744024,REC_START,n/a,n/a,2,-999,n/a,SHELL,n/a,n/a,7,"[0, 0, 0]",-999,PAL1,0,R1001P
1215.371,2.216,745424,REC_EVENT,2.8,n/a,2,2,BOMB,SHELL,BOMB,BANK,7,"[0, 0, 0]",-999,PAL1,0,R1001P
1217.587,0.017,746532,REC_END,n/a,n/a,2,-999,n/a,n/a,n/a,n/a,7,"[0, 0, 0]",-999,PAL1,0,R1001P
1217.604,0.275,746541,TEST_ORIENT,n/a,n/a,1,3,HOLE,SQUARE,SQUARE,HOLE,7,"[0, 0, 0]",-999,PAL1,0,R1001P
1218.405,0.0,746941,REC_START,n/a,n/a,1,-999,n/a,SQUARE,n/a,n/a,7,"[0, 0, 0]",-999,PAL1,0,R1001P
1218.405,4.0,746941,TEST_PROBE,n/a,wordpools/wordpool_EN.txt,1,3,HOLE,SQUARE,SQUARE,HOLE,7,"[0, 0, 0]",-999,PAL1,0,R1001P
1221.301,2.121,748389,REC_EVENT,2.896,n/a,1,3,HOLE,SQUARE,SQUARE,HOLE,7,"[0, 0, 0]",-999,PAL1,0,R1001P
1223.422,0.017,749450,REC_END,n/a,n/a,1,-999,n/a,n/a,n/a,n/a,7,"[0, 0, 0]",-999,PAL1,0,R1001P
1223.439,0.275,749458,TEST_ORIENT,n/a,n/a,4,4,STORE,POLE,OWL,STORE,7,"[0, 0, 0]",-999,PAL1,0,R1001P
1224.406,4.0,749942,TEST_PROBE,n/a,wordpools/wordpool_EN.txt,4,4,STORE,POLE,OWL,STORE,7,"[0, 0, 0]",-999,PAL1,0,R1001P
1224.406,3.497,749942,REC_START,n/a,n/a,4,-999,n/a,POLE,n/a,n/a,7,"[0, 0, 0]",-999,PAL1,0,R1001P
1227.903,1.52,751690,REC_EVENT,3.497,n/a,4,4,STORE,POLE,OWL,STORE,7,"[0, 0, 0]",-999,PAL1,0,R1001P
1229.423,0.017,752450,REC_END,n/a,n/a,4,-999,n/a,n/a,n/a,n/a,7,"[0, 0, 0]",-999,PAL1,0,R1001P
1229.44,0.275,752458,TEST_ORIENT,n/a,n/a,5,5,WORM,PASS,WORM,WALL,7,"[0, 0, 0]",-999,PAL1,0,R1001P
1230.307,4.0,752892,TEST_PROBE,n/a,wordpools/wordpool_EN.txt,5,5,WORM,PASS,WORM,WALL,7,"[0, 0, 0]",-999,PAL1,0,R1001P
1230.307,4.314,752892,REC_START,n/a,n/a,5,-999,n/a,PASS,n/a,n/a,7,"[0, 0, 0]",-999,PAL1,0,R1001P
1234.621,0.703,755049,REC_EVENT,4.314,n/a,5,5,WORM,PASS,WORM,WALL,7,"[0, 0, 0]",-999,PAL1,0,R1001P
1235.324,0.017,755400,REC_END,n/a,n/a,5,-999,n/a,n/a,n/a,n/a,7,"[0, 0, 0]",-999,PAL1,0,R1001P
1235.341,0.275,755409,TEST_ORIENT,n/a,n/a,6,6,STREET,BITE,STREET,LAMP,7,"[0, 0, 0]",-999,PAL1,0,R1001P
1236.241,4.0,755859,TEST_PROBE,n/a,wordpools/wordpool_EN.txt,6,6,STREET,BITE,STREET,LAMP,7,"[0, 0, 0]",-999,PAL1,0,R1001P
1236.242,3.288,755859,REC_START,n/a,n/a,6,-999,n/a,BITE,n/a,n/a,7,"[0, 0, 0]",-999,PAL1,0,R1001P
1239.53,1.721,757503,REC_EVENT,3.288,n/a,6,6,STREET,BITE,STREET,LAMP,7,"[0, 0, 0]",-999,PAL1,0,R1001P
1241.251,2.442,758364,REC_END,n/a,n/a,6,-999,n/a,n/a,n/a,n/a,7,"[0, 0, 0]",-999,PAL1,0,R1001P
1243.693,10.452,759585,ENCODING_START,n/a,n/a,0,-999,n/a,n/a,n/a,n/a,8,"[0, 0, 0]",-999,PAL1,0,R1001P
1254.145,0.275,764810,STUDY_ORIENT,n/a,n/a,1,5,MOLE,SKULL,MOLE,SKUNK,8,"[0, 0, 0]",-999,PAL1,0,R1001P
1255.128,4.0,765302,STUDY_PAIR,n/a,wordpools/wordpool_EN.txt,1,5,MOLE,SKULL,MOLE,SKUNK,8,"[0, 0, 0]",-999,PAL1,0,R1001P
1260.146,0.275,767811,STUDY_ORIENT,n/a,n/a,2,6,TOY,n/a,TEA,TOY,8,"[0, 0, 0]",-999,PAL1,0,R1001P
1261.129,4.0,768302,STUDY_PAIR,n/a,wordpools/wordpool_EN.txt,2,6,TOY,n/a,TEA,TOY,8,"[0, 0, 0]",-999,PAL1,0,R1001P
1266.147,0.275,770811,STUDY_ORIENT,n/a,n/a,3,1,BOOT,SHOE,MOTH,BOOT,8,"[0, 0, 0]",-999,PAL1,0,R1001P
1266.931,4.0,771203,STUDY_PAIR,n/a,wordpools/wordpool_EN.txt,3,1,BOOT,SHOE,MOTH,BOOT,8,"[0, 0, 0]",-999,PAL1,0,R1001P
1271.965,0.275,773720,STUDY_ORIENT,n/a,n/a,4,2,BUSH,BOOT,ANT,BUSH,8,"[0, 0, 0]",-999,PAL1,0,R1001P
1272.815,4.0,774145,STUDY_PAIR,n/a,wordpools/wordpool_EN.txt,4,2,BUSH,BOOT,ANT,BUSH,8,"[0, 0, 0]",-999,PAL1,0,R1001P
1277.849,0.275,776662,STUDY_ORIENT,n/a,n/a,5,3,BEAK,n/a,BEAK,ROPE,8,"[0, 0, 0]",-999,PAL1,0,R1001P
1278.749,4.0,777112,STUDY_PAIR,n/a,wordpools/wordpool_EN.txt,5,3,BEAK,n/a,BEAK,ROPE,8,"[0, 0, 0]",-999,PAL1,0,R1001P
1283.767,0.275,779620,STUDY_ORIENT,n/a,n/a,6,4,SHIRT,n/a,SHIRT,SPEAR,8,"[0, 0, 0]",-999,PAL1,0,R1001P
1284.651,4.0,780062,STUDY_PAIR,n/a,wordpools/wordpool_EN.txt,6,4,SHIRT,n/a,SHIRT,SPEAR,8,"[0, 0, 0]",-999,PAL1,0,R1001P
1288.669,0.999,782071,START,n/a,n/a,-999,-999,n/a,n/a,n/a,n/a,8,"[-999, -999, -999]",-999,PAL1,0,R1001P
1289.668,0.017,782571,MATH_START,n/a,n/a,-999,-999,n/a,n/a,n/a,n/a,8,"[0, 0, 0]",-999,PAL1,0,R1001P
1289.685,17.387,782579,PROB,17.36,n/a,-999,-999,n/a,n/a,n/a,n/a,8,"[6, 5, 9]",20,PAL1,0,R1001P
1307.072,10.797,791272,PROB,10.797,n/a,-999,-999,n/a,n/a,n/a,n/a,8,"[8, 1, 3]",13,PAL1,0,R1001P
1317.869,0.005,796671,STOP,n/a,n/a,-999,-999,n/a,n/a,n/a,n/a,8,"[-999, -999, -999]",-999,PAL1,0,R1001P
1317.874,0.0,796673,MATH_END,n/a,n/a,-999,-999,n/a,n/a,n/a,n/a,8,"[0, 0, 0]",-999,PAL1,0,R1001P
1317.874,0.016,796673,TEST_START,n/a,n/a,-999,-999,n/a,n/a,n/a,n/a,8,"[0, 0, 0]",-999,PAL1,0,R1001P
1317.89,0.275,796681,TEST_ORIENT,n/a,n/a,3,1,BOOT,SHOE,MOTH,BOOT,8,"[0, 0, 0]",-999,PAL1,0,R1001P
1318.807,4.0,797140,TEST_PROBE,n/a,wordpools/wordpool_EN.txt,3,1,BOOT,SHOE,MOTH,BOOT,8,"[0, 0, 0]",-999,PAL1,0,R1001P
1318.808,3.571,797140,REC_START,n/a,n/a,3,-999,n/a,SHOE,n/a,n/a,8,"[0, 0, 0]",-999,PAL1,0,R1001P
1322.379,1.437,798925,REC_EVENT,3.571,n/a,3,1,BOOT,SHOE,MOTH,BOOT,8,"[0, 0, 0]",-999,PAL1,0,R1001P
1323.816,0.009,799644,REC_END,n/a,n/a,3,-999,n/a,n/a,n/a,n/a,8,"[0, 0, 0]",-999,PAL1,0,R1001P
1323.825,0.275,799648,TEST_ORIENT,n/a,n/a,4,2,BUSH,BOOT,ANT,BUSH,8,"[0, 0, 0]",-999,PAL1,0,R1001P
1324.808,4.0,800140,TEST_PROBE,n/a,wordpools/wordpool_EN.txt,4,2,BUSH,BOOT,ANT,BUSH,8,"[0, 0, 0]",-999,PAL1,0,R1001P
1324.809,3.777,800140,REC_START,n/a,n/a,4,-999,n/a,BOOT,n/a,n/a,8,"[0, 0, 0]",-999,PAL1,0,R1001P
1328.586,1.231,802029,REC_EVENT,3.777,n/a,4,2,BUSH,BOOT,ANT,BUSH,8,"[0, 0, 0]",-999,PAL1,0,R1001P
1329.817,0.009,802644,REC_END,n/a,n/a,4,-999,n/a,n/a,n/a,n/a,8,"[0, 0, 0]",-999,PAL1,0,R1001P
1329.826,0.275,802649,TEST_ORIENT,n/a,n/a,5,3,BEAK,n/a,BEAK,ROPE,8,"[0, 0, 0]",-999,PAL1,0,R1001P
1330.759,4.0,803115,TEST_PROBE,n/a,wordpools/wordpool_EN.txt,5,3,BEAK,n/a,BEAK,ROPE,8,"[0, 0, 0]",-999,PAL1,0,R1001P
1330.76,4.619,803116,REC_START,n/a,n/a,5,-999,n/a,n/a,n/a,n/a,8,"[0, 0, 0]",-999,PAL1,0,R1001P
1335.379,0.39,805425,REC_EVENT,4.619,n/a,5,3,BEAK,<>,BEAK,ROPE,8,"[0, 0, 0]",-999,PAL1,0,R1001P
1335.769,0.008,805620,REC_END,n/a,n/a,5,-999,n/a,n/a,n/a,n/a,8,"[0, 0, 0]",-999,PAL1,0,R1001P
1335.777,0.275,805624,TEST_ORIENT,n/a,n/a,6,4,SHIRT,n/a,SHIRT,SPEAR,8,"[0, 0, 0]",-999,PAL1,0,R1001P
1336.811,4.0,806141,TEST_PROBE,n/a,wordpools/wordpool_EN.txt,6,4,SHIRT,n/a,SHIRT,SPEAR,8,"[0, 0, 0]",-999,PAL1,0,R1001P
1336.811,5.015,806141,REC_START,n/a,n/a,6,-999,n/a,n/a,n/a,n/a,8,"[0, 0, 0]",-999,PAL1,0,R1001P
1341.826,0.002,808648,REC_EVENT,5.015,n/a,6,4,SHIRT,<>,SHIRT,SPEAR,8,"[0, 0, 0]",-999,PAL1,0,R1001P
1341.828,0.017,808649,REC_END,n/a,n/a,6,-999,n/a,n/a,n/a,n/a,8,"[0, 0, 0]",-999,PAL1,0,R1001P
1341.845,0.275,808658,TEST_ORIENT,n/a,n/a,1,5,MOLE,SKULL,MOLE,SKUNK,8,"[0, 0, 0]",-999,PAL1,0,R1001P
1342.862,4.0,809166,TEST_PROBE,n/a,wordpools/wordpool_EN.txt,1,5,MOLE,SKULL,MOLE,SKUNK,8,"[0, 0, 0]",-999,PAL1,0,R1001P
1342.862,4.655,809166,REC_START,n/a,n/a,1,-999,n/a,SKULL,n/a,n/a,8,"[0, 0, 0]",-999,PAL1,0,R1001P
1347.517,0.362,811494,REC_EVENT,4.655,n/a,1,5,MOLE,SKULL,MOLE,SKUNK,8,"[0, 0, 0]",-999,PAL1,0,R1001P
1347.879,0.017,811675,REC_END,n/a,n/a,1,-999,n/a,n/a,n/a,n/a,8,"[0, 0, 0]",-999,PAL1,0,R1001P
1347.896,0.275,811683,TEST_ORIENT,n/a,n/a,2,6,TOY,n/a,TEA,TOY,8,"[0, 0, 0]",-999,PAL1,0,R1001P
1348.813,4.0,812142,TEST_PROBE,n/a,wordpools/wordpool_EN.txt,2,6,TOY,n/a,TEA,TOY,8,"[0, 0, 0]",-999,PAL1,0,R1001P
1348.813,5.015,812142,REC_START,n/a,n/a,2,-999,n/a,n/a,n/a,n/a,8,"[0, 0, 0]",-999,PAL1,0,R1001P
1353.828,0.002,814649,REC_EVENT,5.015,n/a,2,6,TOY,<>,TEA,TOY,8,"[0, 0, 0]",-999,PAL1,0,R1001P
1353.83,3.592,814650,REC_END,n/a,n/a,2,-999,n/a,n/a,n/a,n/a,8,"[0, 0, 0]",-999,PAL1,0,R1001P
1357.422,10.445,816446,ENCODING_START,n/a,n/a,0,-999,n/a,n/a,n/a,n/a,9,"[0, 0, 0]",-999,PAL1,0,R1001P
1367.867,0.275,821668,STUDY_ORIENT,n/a,n/a,1,1,SMILE,n/a,SMILE,SMOKE,9,"[0, 0, 0]",-999,PAL1,0,R1001P
1368.65,4.0,822060,STUDY_PAIR,n/a,wordpools/wordpool_EN.txt,1,1,SMILE,n/a,SMILE,SMOKE,9,"[0, 0, 0]",-999,PAL1,0,R1001P
1373.668,0.275,824569,STUDY_ORIENT,n/a,n/a,2,2,SPARK,LAKE,SPARK,FAN,9,"[0, 0, 0]",-999,PAL1,0,R1001P
1374.485,4.0,824977,STUDY_PAIR,n/a,wordpools/wordpool_EN.txt,2,2,SPARK,LAKE,SPARK,FAN,9,"[0, 0, 0]",-999,PAL1,0,R1001P
1379.519,0.275,827494,STUDY_ORIENT,n/a,n/a,3,5,CALF,n/a,NEST,CALF,9,"[0, 0, 0]",-999,PAL1,0,R1001P
1380.469,4.0,827969,STUDY_PAIR,n/a,wordpools/wordpool_EN.txt,3,5,CALF,n/a,NEST,CALF,9,"[0, 0, 0]",-999,PAL1,0,R1001P
1385.487,0.275,830478,STUDY_ORIENT,n/a,n/a,4,6,SHEEP,SLEEK,BOY,SHEEP,9,"[0, 0, 0]",-999,PAL1,0,R1001P
1386.32,4.0,830894,STUDY_PAIR,n/a,wordpools/wordpool_EN.txt,4,6,SHEEP,SLEEK,BOY,SHEEP,9,"[0, 0, 0]",-999,PAL1,0,R1001P
1391.338,0.275,833403,STUDY_ORIENT,n/a,n/a,5,3,SUN,n/a,SUN,RICE,9,"[0, 0, 0]",-999,PAL1,0,R1001P
1392.305,4.0,833887,STUDY_PAIR,n/a,wordpools/wordpool_EN.txt,5,3,SUN,n/a,SUN,RICE,9,"[0, 0, 0]",-999,PAL1,0,R1001P
1397.339,0.275,836403,STUDY_ORIENT,n/a,n/a,6,4,SEAL,WHEEL,FLAG,SEAL,9,"[0, 0, 0]",-999,PAL1,0,R1001P
1398.157,4.0,836812,STUDY_PAIR,n/a,wordpools/wordpool_EN.txt,6,4,SEAL,WHEEL,FLAG,SEAL,9,"[0, 0, 0]",-999,PAL1,0,R1001P
1402.174,0.999,838821,START,n/a,n/a,-999,-999,n/a,n/a,n/a,n/a,9,"[-999, -999, -999]",-999,PAL1,0,R1001P
1403.173,0.017,839320,MATH_START,n/a,n/a,-999,-999,n/a,n/a,n/a,n/a,9,"[0, 0, 0]",-999,PAL1,0,R1001P
1403.19,12.036,839329,PROB,12.007,n/a,-999,-999,n/a,n/a,n/a,n/a,9,"[8, 6, 1]",15,PAL1,0,R1001P
1415.226,23.659,845346,PROB,23.659,n/a,-999,-999,n/a,n/a,n/a,n/a,9,"[2, 5, 6]",13,PAL1,0,R1001P
1438.885,0.012,857175,STOP,n/a,n/a,-999,-999,n/a,n/a,n/a,n/a,9,"[-999, -999, -999]",-999,PAL1,0,R1001P
1438.897,0.0,857181,MATH_END,n/a,n/a,-999,-999,n/a,n/a,n/a,n/a,9,"[0, 0, 0]",-999,PAL1,0,R1001P
1438.897,0.017,857181,TEST_START,n/a,n/a,-999,-999,n/a,n/a,n/a,n/a,9,"[0, 0, 0]",-999,PAL1,0,R1001P
1438.914,0.275,857190,TEST_ORIENT,n/a,n/a,1,1,SMILE,n/a,SMILE,SMOKE,9,"[0, 0, 0]",-999,PAL1,0,R1001P
1439.914,4.0,857690,TEST_PROBE,n/a,wordpools/wordpool_EN.txt,1,1,SMILE,n/a,SMILE,SMOKE,9,"[0, 0, 0]",-999,PAL1,0,R1001P
1439.915,5.015,857690,REC_START,n/a,n/a,1,-999,n/a,n/a,n/a,n/a,9,"[0, 0, 0]",-999,PAL1,0,R1001P
1444.93,0.001,860198,REC_EVENT,5.015,n/a,1,1,SMILE,<>,SMILE,SMOKE,9,"[0, 0, 0]",-999,PAL1,0,R1001P
1444.931,0.017,860198,REC_END,n/a,n/a,1,-999,n/a,n/a,n/a,n/a,9,"[0, 0, 0]",-999,PAL1,0,R1001P
1444.948,0.275,860207,TEST_ORIENT,n/a,n/a,2,2,SPARK,LAKE,SPARK,FAN,9,"[0, 0, 0]",-999,PAL1,0,R1001P
1445.765,4.0,860615,TEST_PROBE,n/a,wordpools/wordpool_EN.txt,2,2,SPARK,LAKE,SPARK,FAN,9,"[0, 0, 0]",-999,PAL1,0,R1001P
1445.766,1.305,860616,REC_START,n/a,n/a,2,-999,n/a,LAKE,n/a,n/a,9,"[0, 0, 0]",-999,PAL1,0,R1001P
1447.071,2.598,861268,REC_EVENT,1.305,n/a,2,2,SPARK,SPARK,SPARK,FAN,9,"[0, 0, 0]",-999,PAL1,0,R1001P
1449.669,1.113,862567,REC_EVENT,3.903,n/a,2,2,SPARK,LAKE,SPARK,FAN,9,"[0, 0, 0]",-999,PAL1,0,R1001P
1450.782,0.017,863124,REC_END,n/a,n/a,2,-999,n/a,n/a,n/a,n/a,9,"[0, 0, 0]",-999,PAL1,0,R1001P
1450.799,0.275,863132,TEST_ORIENT,n/a,n/a,5,3,SUN,n/a,SUN,RICE,9,"[0, 0, 0]",-999,PAL1,0,R1001P
1451.616,4.0,863541,TEST_PROBE,n/a,wordpools/wordpool_EN.txt,5,3,SUN,n/a,SUN,RICE,9,"[0, 0, 0]",-999,PAL1,0,R1001P
1451.617,5.003,863541,REC_START,n/a,n/a,5,-999,n/a,n/a,n/a,n/a,9,"[0, 0, 0]",-999,PAL1,0,R1001P
1456.62,0.005,866042,REC_EVENT,5.003,n/a,5,3,SUN,<>,SUN,RICE,9,"[0, 0, 0]",-999,PAL1,0,R1001P
1456.625,0.009,866045,REC_END,n/a,n/a,5,-999,n/a,n/a,n/a,n/a,9,"[0, 0, 0]",-999,PAL1,0,R1001P
1456.634,0.275,866049,TEST_ORIENT,n/a,n/a,6,4,SEAL,WHEEL,FLAG,SEAL,9,"[0, 0, 0]",-999,PAL1,0,R1001P
1457.501,4.0,866483,TEST_PROBE,n/a,wordpools/wordpool_EN.txt,6,4,SEAL,WHEEL,FLAG,SEAL,9,"[0, 0, 0]",-999,PAL1,0,R1001P
1457.501,1.405,866483,REC_START,n/a,n/a,6,-999,n/a,WHEEL,n/a,n/a,9,"[0, 0, 0]",-999,PAL1,0,R1001P
1458.906,1.95,867185,REC_EVENT,1.405,n/a,6,4,SEAL,SEAL,FLAG,SEAL,9,"[0, 0, 0]",-999,PAL1,0,R1001P
1460.856,1.662,868160,REC_EVENT,3.355,n/a,6,4,SEAL,WHEEL,FLAG,SEAL,9,"[0, 0, 0]",-999,PAL1,0,R1001P
1462.518,0.017,868991,REC_END,n/a,n/a,6,-999,n/a,n/a,n/a,n/a,9,"[0, 0, 0]",-999,PAL1,0,R1001P
1462.535,0.275,869000,TEST_ORIENT,n/a,n/a,3,5,CALF,n/a,NEST,CALF,9,"[0, 0, 0]",-999,PAL1,0,R1001P
1463.435,4.0,869450,TEST_PROBE,n/a,wordpools/wordpool_EN.txt,3,5,CALF,n/a,NEST,CALF,9,"[0, 0, 0]",-999,PAL1,0,R1001P
1463.435,5.015,869450,REC_START,n/a,n/a,3,-999,n/a,n/a,n/a,n/a,9,"[0, 0, 0]",-999,PAL1,0,R1001P
1468.45,0.003,871957,REC_EVENT,5.015,n/a,3,5,CALF,<>,NEST,CALF,9,"[0, 0, 0]",-999,PAL1,0,R1001P
1468.453,0.016,871959,REC_END,n/a,n/a,3,-999,n/a,n/a,n/a,n/a,9,"[0, 0, 0]",-999,PAL1,0,R1001P
1468.469,0.275,871967,TEST_ORIENT,n/a,n/a,4,6,SHEEP,SLEEK,BOY,SHEEP,9,"[0, 0, 0]",-999,PAL1,0,R1001P
1469.503,0.0,872484,REC_START,n/a,n/a,4,-999,n/a,SLEEK,n/a,n/a,9,"[0, 0, 0]",-999,PAL1,0,R1001P
1469.503,4.0,872484,TEST_PROBE,n/a,wordpools/wordpool_EN.txt,4,6,SHEEP,SLEEK,BOY,SHEEP,9,"[0, 0, 0]",-999,PAL1,0,R1001P
1473.229,1.291,874346,REC_EVENT,3.726,n/a,4,6,SHEEP,SLEEK,BOY,SHEEP,9,"[0, 0, 0]",-999,PAL1,0,R1001P
1474.52,3.221,874992,REC_END,n/a,n/a,4,-999,n/a,n/a,n/a,n/a,9,"[0, 0, 0]",-999,PAL1,0,R1001P
1477.741,10.449,876602,ENCODING_START,n/a,n/a,0,-999,n/a,n/a,n/a,n/a,10,"[0, 0, 0]",-999,PAL1,0,R1001P
1488.19,0.275,881827,STUDY_ORIENT,n/a,n/a,1,5,POOL,n/a,ROOF,POOL,10,"[0, 0, 0]",-999,PAL1,0,R1001P
1489.173,4.0,882318,STUDY_PAIR,n/a,wordpools/wordpool_EN.txt,1,5,POOL,n/a,ROOF,POOL,10,"[0, 0, 0]",-999,PAL1,0,R1001P
1494.191,0.275,884827,STUDY_ORIENT,n/a,n/a,2,2,FISH,MAKE,BEACH,FISH,10,"[0, 0, 0]",-999,PAL1,0,R1001P
1495.124,4.0,885293,STUDY_PAIR,n/a,wordpools/wordpool_EN.txt,2,2,FISH,MAKE,BEACH,FISH,10,"[0, 0, 0]",-999,PAL1,0,R1001P
1500.142,0.275,887802,STUDY_ORIENT,n/a,n/a,3,1,CLOCK,CAKE,CLOCK,PEACH,10,"[0, 0, 0]",-999,PAL1,0,R1001P
1501.092,4.0,888277,STUDY_PAIR,n/a,wordpools/wordpool_EN.txt,3,1,CLOCK,CAKE,CLOCK,PEACH,10,"[0, 0, 0]",-999,PAL1,0,R1001P
1506.11,0.275,890786,STUDY_ORIENT,n/a,n/a,4,4,TREE,n/a,TREE,GRAPE,10,"[0, 0, 0]",-999,PAL1,0,R1001P
1507.127,4.0,891295,STUDY_PAIR,n/a,wordpools/wordpool_EN.txt,4,4,TREE,n/a,TREE,GRAPE,10,"[0, 0, 0]",-999,PAL1,0,R1001P
1512.162,0.275,893812,STUDY_ORIENT,n/a,n/a,5,3,LEG,PASS,STOVE,LEG,10,"[0, 0, 0]",-999,PAL1,0,R1001P
1513.061,4.0,894261,STUDY_PAIR,n/a,wordpools/wordpool_EN.txt,5,3,LEG,PASS,STOVE,LEG,10,"[0, 0, 0]",-999,PAL1,0,R1001P
1518.079,0.275,896770,STUDY_ORIENT,n/a,n/a,6,6,BOAT,n/a,BOAT,TOAST,10,"[0, 0, 0]",-999,PAL1,0,R1001P
1519.012,4.0,897237,STUDY_PAIR,n/a,wordpools/wordpool_EN.txt,6,6,BOAT,n/a,BOAT,TOAST,10,"[0, 0, 0]",-999,PAL1,0,R1001P
1523.013,1.0,899237,START,n/a,n/a,-999,-999,n/a,n/a,n/a,n/a,10,"[-999, -999, -999]",-999,PAL1,0,R1001P
1524.013,0.017,899737,MATH_START,n/a,n/a,-999,-999,n/a,n/a,n/a,n/a,10,"[0, 0, 0]",-999,PAL1,0,R1001P
1524.03,7.285,899746,PROB,7.263,n/a,-999,-999,n/a,n/a,n/a,n/a,10,"[8, 2, 1]",11,PAL1,0,R1001P
1531.315,13.874,903388,PROB,13.874,n/a,-999,-999,n/a,n/a,n/a,n/a,10,"[4, 2, 4]",10,PAL1,0,R1001P
1545.189,0.012,910325,STOP,n/a,n/a,-999,-999,n/a,n/a,n/a,n/a,10,"[-999, -999, -999]",-999,PAL1,0,R1001P
1545.201,0.0,910331,MATH_END,n/a,n/a,-999,-999,n/a,n/a,n/a,n/a,10,"[0, 0, 0]",-999,PAL1,0,R1001P
1545.201,0.017,910331,TEST_START,n/a,n/a,-999,-999,n/a,n/a,n/a,n/a,10,"[0, 0, 0]",-999,PAL1,0,R1001P
1545.218,0.275,910339,TEST_ORIENT,n/a,n/a,3,1,CLOCK,CAKE,CLOCK,PEACH,10,"[0, 0, 0]",-999,PAL1,0,R1001P
1546.184,4.0,910822,TEST_PROBE,n/a,wordpools/wordpool_EN.txt,3,1,CLOCK,CAKE,CLOCK,PEACH,10,"[0, 0, 0]",-999,PAL1,0,R1001P
1546.185,3.568,910822,REC_START,n/a,n/a,3,-999,n/a,CAKE,n/a,n/a,10,"[0, 0, 0]",-999,PAL1,0,R1001P
1549.753,1.44,912606,REC_EVENT,3.568,n/a,3,1,CLOCK,CAKE,CLOCK,PEACH,10,"[0, 0, 0]",-999,PAL1,0,R1001P
1551.193,0.009,913326,REC_END,n/a,n/a,3,-999,n/a,n/a,n/a,n/a,10,"[0, 0, 0]",-999,PAL1,0,R1001P
1551.202,0.275,913331,TEST_ORIENT,n/a,n/a,2,2,FISH,MAKE,BEACH,FISH,10,"[0, 0, 0]",-999,PAL1,0,R1001P
1552.202,4.0,913831,TEST_PROBE,n/a,wordpools/wordpool_EN.txt,2,2,FISH,MAKE,BEACH,FISH,10,"[0, 0, 0]",-999,PAL1,0,R1001P
1552.203,3.256,913831,REC_START,n/a,n/a,2,-999,n/a,MAKE,n/a,n/a,10,"[0, 0, 0]",-999,PAL1,0,R1001P
1555.459,1.753,915459,REC_EVENT,3.256,n/a,2,2,FISH,MAKE,BEACH,FISH,10,"[0, 0, 0]",-999,PAL1,0,R1001P
1557.212,0.008,916336,REC_END,n/a,n/a,2,-999,n/a,n/a,n/a,n/a,10,"[0, 0, 0]",-999,PAL1,0,R1001P
1557.22,0.275,916340,TEST_ORIENT,n/a,n/a,5,3,LEG,PASS,STOVE,LEG,10,"[0, 0, 0]",-999,PAL1,0,R1001P
1558.12,4.0,916790,TEST_PROBE,n/a,wordpools/wordpool_EN.txt,5,3,LEG,PASS,STOVE,LEG,10,"[0, 0, 0]",-999,PAL1,0,R1001P
1558.12,4.635,916790,REC_START,n/a,n/a,5,-999,n/a,PASS,n/a,n/a,10,"[0, 0, 0]",-999,PAL1,0,R1001P
1562.755,0.383,919107,REC_EVENT,4.635,n/a,5,3,LEG,PASS,STOVE,LEG,10,"[0, 0, 0]",-999,PAL1,0,R1001P
1563.138,0.017,919299,REC_END,n/a,n/a,5,-999,n/a,n/a,n/a,n/a,10,"[0, 0, 0]",-999,PAL1,0,R1001P
1563.155,0.275,919307,TEST_ORIENT,n/a,n/a,4,4,TREE,n/a,TREE,GRAPE,10,"[0, 0, 0]",-999,PAL1,0,R1001P
1564.138,4.0,919799,TEST_PROBE,n/a,wordpools/wordpool_EN.txt,4,4,TREE,n/a,TREE,GRAPE,10,"[0, 0, 0]",-999,PAL1,0,R1001P
1564.138,5.018,919799,REC_START,n/a,n/a,4,-999,n/a,n/a,n/a,n/a,10,"[0, 0, 0]",-999,PAL1,0,R1001P
1569.156,0.003,922307,REC_END,n/a,n/a,4,-999,n/a,n/a,n/a,n/a,10,"[0, 0, 0]",-999,PAL1,0,R1001P
1569.159,0.013,922309,REC_EVENT,5.021,n/a,4,4,TREE,<>,TREE,GRAPE,10,"[0, 0, 0]",-999,PAL1,0,R1001P
1569.172,0.275,922315,TEST_ORIENT,n/a,n/a,1,5,POOL,n/a,ROOF,POOL,10,"[0, 0, 0]",-999,PAL1,0,R1001P
1570.089,4.0,922774,TEST_PROBE,n/a,wordpools/wordpool_EN.txt,1,5,POOL,n/a,ROOF,POOL,10,"[0, 0, 0]",-999,PAL1,0,R1001P
1570.089,0.0,922774,REC_START,n/a,n/a,1,-999,n/a,n/a,n/a,n/a,10,"[0, 0, 0]",-999,PAL1,0,R1001P
1570.089,5.015,922774,REC_EVENT,0.0,n/a,1,5,POOL,<>,ROOF,POOL,10,"[0, 0, 0]",-999,PAL1,0,R1001P
1575.104,0.003,925281,REC_EVENT,5.015,n/a,1,5,POOL,<>,ROOF,POOL,10,"[0, 0, 0]",-999,PAL1,0,R1001P
1575.107,0.016,925283,REC_END,n/a,n/a,1,-999,n/a,n/a,n/a,n/a,10,"[0, 0, 0]",-999,PAL1,0,R1001P
1575.123,0.275,925291,TEST_ORIENT,n/a,n/a,6,6,BOAT,n/a,BOAT,TOAST,10,"[0, 0, 0]",-999,PAL1,0,R1001P
1576.057,0.0,925758,REC_START,n/a,n/a,6,-999,n/a,n/a,n/a,n/a,10,"[0, 0, 0]",-999,PAL1,0,R1001P
1576.057,4.0,925758,TEST_PROBE,n/a,wordpools/wordpool_EN.txt,6,6,BOAT,n/a,BOAT,TOAST,10,"[0, 0, 0]",-999,PAL1,0,R1001P
1581.072,0.002,928265,REC_EVENT,5.015,n/a,6,6,BOAT,<>,BOAT,TOAST,10,"[0, 0, 0]",-999,PAL1,0,R1001P
1581.074,1.627,928266,REC_END,n/a,n/a,6,-999,n/a,n/a,n/a,n/a,10,"[0, 0, 0]",-999,PAL1,0,R1001P
1582.701,10.443,929080,ENCODING_START,n/a,n/a,0,-999,n/a,n/a,n/a,n/a,11,"[0, 0, 0]",-999,PAL1,0,R1001P
1593.144,0.275,934301,STUDY_ORIENT,n/a,n/a,1,5,SUIT,n/a,SUIT,PRINCE,11,"[0, 0, 0]",-999,PAL1,0,R1001P
1594.044,4.0,934751,STUDY_PAIR,n/a,wordpools/wordpool_EN.txt,1,5,SUIT,n/a,SUIT,PRINCE,11,"[0, 0, 0]",-999,PAL1,0,R1001P
1599.078,0.275,937268,STUDY_ORIENT,n/a,n/a,2,4,MOUTH,n/a,STONE,MOUTH,11,"[0, 0, 0]",-999,PAL1,0,R1001P
1599.878,4.0,937668,STUDY_PAIR,n/a,wordpools/wordpool_EN.txt,2,4,MOUTH,n/a,STONE,MOUTH,11,"[0, 0, 0]",-999,PAL1,0,R1001P
1604.896,0.275,940176,STUDY_ORIENT,n/a,n/a,3,1,VASE,n/a,WOOD,VASE,11,"[0, 0, 0]",-999,PAL1,0,R1001P
1605.896,4.0,940676,STUDY_PAIR,n/a,wordpools/wordpool_EN.txt,3,1,VASE,n/a,WOOD,VASE,11,"[0, 0, 0]",-999,PAL1,0,R1001P
1610.93,0.275,943193,STUDY_ORIENT,n/a,n/a,4,6,DRESS,SUIT,DRESS,COIN,11,"[0, 0, 0]",-999,PAL1,0,R1001P
1611.83,4.0,943643,STUDY_PAIR,n/a,wordpools/wordpool_EN.txt,4,6,DRESS,SUIT,DRESS,COIN,11,"[0, 0, 0]",-999,PAL1,0,R1001P
1616.848,0.275,946152,STUDY_ORIENT,n/a,n/a,5,3,COW,SHEEP,YARD,COW,11,"[0, 0, 0]",-999,PAL1,0,R1001P
1617.748,4.0,946602,STUDY_PAIR,n/a,wordpools/wordpool_EN.txt,5,3,COW,SHEEP,YARD,COW,11,"[0, 0, 0]",-999,PAL1,0,R1001P
1622.766,0.275,949111,STUDY_ORIENT,n/a,n/a,6,2,GLASS,n/a,GLASS,CAKE,11,"[0, 0, 0]",-999,PAL1,0,R1001P
1623.716,4.0,949586,STUDY_PAIR,n/a,wordpools/wordpool_EN.txt,6,2,GLASS,n/a,GLASS,CAKE,11,"[0, 0, 0]",-999,PAL1,0,R1001P
1627.717,1.0,951586,START,n/a,n/a,-999,-999,n/a,n/a,n/a,n/a,11,"[-999, -999, -999]",-999,PAL1,0,R1001P
1628.717,0.017,952086,MATH_START,n/a,n/a,-999,-999,n/a,n/a,n/a,n/a,11,"[0, 0, 0]",-999,PAL1,0,R1001P
1628.734,9.718,952095,PROB,9.695,n/a,-999,-999,n/a,n/a,n/a,n/a,11,"[5, 5, 7]",17,PAL1,0,R1001P
1638.452,8.669,956954,PROB,8.649,n/a,-999,-999,n/a,n/a,n/a,n/a,11,"[3, 1, 2]",6,PAL1,0,R1001P
1647.121,9.228,961288,PROB,9.228,n/a,-999,-999,n/a,n/a,n/a,n/a,11,"[9, 8, 5]",22,PAL1,0,R1001P
1656.349,0.007,965902,STOP,n/a,n/a,-999,-999,n/a,n/a,n/a,n/a,11,"[-999, -999, -999]",-999,PAL1,0,R1001P
1656.356,0.0,965905,TEST_START,n/a,n/a,-999,-999,n/a,n/a,n/a,n/a,11,"[0, 0, 0]",-999,PAL1,0,R1001P
1656.356,0.016,965905,MATH_END,n/a,n/a,-999,-999,n/a,n/a,n/a,n/a,11,"[0, 0, 0]",-999,PAL1,0,R1001P
1656.372,0.275,965913,TEST_ORIENT,n/a,n/a,3,1,VASE,n/a,WOOD,VASE,11,"[0, 0, 0]",-999,PAL1,0,R1001P
1657.189,4.0,966322,TEST_PROBE,n/a,wordpools/wordpool_EN.txt,3,1,VASE,n/a,WOOD,VASE,11,"[0, 0, 0]",-999,PAL1,0,R1001P
1657.19,5.009,966322,REC_START,n/a,n/a,3,-999,n/a,n/a,n/a,n/a,11,"[0, 0, 0]",-999,PAL1,0,R1001P
1662.199,0.0,968826,REC_EVENT,5.009,n/a,3,1,VASE,<>,WOOD,VASE,11,"[0, 0, 0]",-999,PAL1,0,R1001P
1662.199,0.008,968826,REC_END,n/a,n/a,3,-999,n/a,n/a,n/a,n/a,11,"[0, 0, 0]",-999,PAL1,0,R1001P
1662.207,0.275,968830,TEST_ORIENT,n/a,n/a,6,2,GLASS,n/a,GLASS,CAKE,11,"[0, 0, 0]",-999,PAL1,0,R1001P
1663.224,0.0,969339,REC_START,n/a,n/a,6,-999,n/a,n/a,n/a,n/a,11,"[0, 0, 0]",-999,PAL1,0,R1001P
1663.224,4.0,969339,TEST_PROBE,n/a,wordpools/wordpool_EN.txt,6,2,GLASS,n/a,GLASS,CAKE,11,"[0, 0, 0]",-999,PAL1,0,R1001P
1668.241,0.004,971847,REC_END,n/a,n/a,6,-999,n/a,n/a,n/a,n/a,11,"[0, 0, 0]",-999,PAL1,0,R1001P
1668.245,0.013,971849,REC_EVENT,5.021,n/a,6,2,GLASS,<>,GLASS,CAKE,11,"[0, 0, 0]",-999,PAL1,0,R1001P
1668.258,0.275,971856,TEST_ORIENT,n/a,n/a,5,3,COW,SHEEP,YARD,COW,11,"[0, 0, 0]",-999,PAL1,0,R1001P
1669.275,4.0,972364,TEST_PROBE,n/a,wordpools/wordpool_EN.txt,5,3,COW,SHEEP,YARD,COW,11,"[0, 0, 0]",-999,PAL1,0,R1001P
1669.275,3.147,972364,REC_START,n/a,n/a,5,-999,n/a,SHEEP,n/a,n/a,11,"[0, 0, 0]",-999,PAL1,0,R1001P
1672.422,1.87,973938,REC_EVENT,3.147,n/a,5,3,COW,SHEEP,YARD,COW,11,"[0, 0, 0]",-999,PAL1,0,R1001P
1674.292,0.017,974873,REC_END,n/a,n/a,5,-999,n/a,n/a,n/a,n/a,11,"[0, 0, 0]",-999,PAL1,0,R1001P
1674.309,0.275,974881,TEST_ORIENT,n/a,n/a,2,4,MOUTH,n/a,STONE,MOUTH,11,"[0, 0, 0]",-999,PAL1,0,R1001P
1675.193,4.0,975323,TEST_PROBE,n/a,wordpools/wordpool_EN.txt,2,4,MOUTH,n/a,STONE,MOUTH,11,"[0, 0, 0]",-999,PAL1,0,R1001P
1675.193,5.015,975323,REC_START,n/a,n/a,2,-999,n/a,n/a,n/a,n/a,11,"[0, 0, 0]",-999,PAL1,0,R1001P
1680.208,0.002,977830,REC_EVENT,5.015,n/a,2,4,MOUTH,<>,STONE,MOUTH,11,"[0, 0, 0]",-999,PAL1,0,R1001P
1680.21,0.017,977831,REC_END,n/a,n/a,2,-999,n/a,n/a,n/a,n/a,11,"[0, 0, 0]",-999,PAL1,0,R1001P
1680.227,0.275,977840,TEST_ORIENT,n/a,n/a,1,5,SUIT,n/a,SUIT,PRINCE,11,"[0, 0, 0]",-999,PAL1,0,R1001P
1681.11,4.0,978281,TEST_PROBE,n/a,wordpools/wordpool_EN.txt,1,5,SUIT,n/a,SUIT,PRINCE,11,"[0, 0, 0]",-999,PAL1,0,R1001P
1681.111,5.008,978282,REC_START,n/a,n/a,1,-999,n/a,n/a,n/a,n/a,11,"[0, 0, 0]",-999,PAL1,0,R1001P
1686.119,0.001,980786,REC_END,n/a,n/a,1,-999,n/a,n/a,n/a,n/a,11,"[0, 0, 0]",-999,PAL1,0,R1001P
1686.12,0.008,980786,REC_EVENT,5.009,n/a,1,5,SUIT,<>,SUIT,PRINCE,11,"[0, 0, 0]",-999,PAL1,0,R1001P
1686.128,0.275,980790,TEST_ORIENT,n/a,n/a,4,6,DRESS,SUIT,DRESS,COIN,11,"[0, 0, 0]",-999,PAL1,0,R1001P
1687.145,0.0,981299,REC_START,n/a,n/a,4,-999,n/a,SUIT,n/a,n/a,11,"[0, 0, 0]",-999,PAL1,0,R1001P
1687.145,4.0,981299,TEST_PROBE,n/a,wordpools/wordpool_EN.txt,4,6,DRESS,SUIT,DRESS,COIN,11,"[0, 0, 0]",-999,PAL1,0,R1001P
1689.303,2.859,982378,REC_EVENT,2.158,n/a,4,6,DRESS,SUIT,DRESS,COIN,11,"[0, 0, 0]",-999,PAL1,0,R1001P
1692.162,3.715,983807,REC_END,n/a,n/a,4,-999,n/a,n/a,n/a,n/a,11,"[0, 0, 0]",-999,PAL1,0,R1001P
1695.877,10.438,985664,ENCODING_START,n/a,n/a,0,-999,n/a,n/a,n/a,n/a,12,"[0, 0, 0]",-999,PAL1,0,R1001P
1706.315,0.275,990883,STUDY_ORIENT,n/a,n/a,1,3,BROOM,n/a,FUDGE,BROOM,12,"[0, 0, 0]",-999,PAL1,0,R1001P
1707.232,4.0,991342,STUDY_PAIR,n/a,wordpools/wordpool_EN.txt,1,3,BROOM,n/a,FUDGE,BROOM,12,"[0, 0, 0]",-999,PAL1,0,R1001P
1712.266,0.275,993859,STUDY_ORIENT,n/a,n/a,2,6,PEAR,FRUIT,LEAF,PEAR,12,"[0, 0, 0]",-999,PAL1,0,R1001P
1713.117,4.0,994284,STUDY_PAIR,n/a,wordpools/wordpool_EN.txt,2,6,PEAR,FRUIT,LEAF,PEAR,12,"[0, 0, 0]",-999,PAL1,0,R1001P
1718.151,0.275,996801,STUDY_ORIENT,n/a,n/a,3,1,CANE,SLEEK,CANE,DART,12,"[0, 0, 0]",-999,PAL1,0,R1001P
1719.101,4.0,997276,STUDY_PAIR,n/a,wordpools/wordpool_EN.txt,3,1,CANE,SLEEK,CANE,DART,12,"[0, 0, 0]",-999,PAL1,0,R1001P
1724.119,0.275,999785,STUDY_ORIENT,n/a,n/a,4,4,SWORD,CAKE,TIE,SWORD,12,"[0, 0, 0]",-999,PAL1,0,R1001P
1725.052,4.0,1000251,STUDY_PAIR,n/a,wordpools/wordpool_EN.txt,4,4,SWORD,CAKE,TIE,SWORD,12,"[0, 0, 0]",-999,PAL1,0,R1001P
1730.07,0.275,1002760,STUDY_ORIENT,n/a,n/a,5,5,SLEEVE,CAN,SLEEVE,NET,12,"[0, 0, 0]",-999,PAL1,0,R1001P
1731.054,4.0,1003252,STUDY_PAIR,n/a,wordpools/wordpool_EN.txt,5,5,SLEEVE,CAN,SLEEVE,NET,12,"[0, 0, 0]",-999,PAL1,0,R1001P
1736.088,0.275,1005769,STUDY_ORIENT,n/a,n/a,6,2,ARM,SLEEVE,ARM,BATH,12,"[0, 0, 0]",-999,PAL1,0,R1001P
1736.938,4.0,1006194,STUDY_PAIR,n/a,wordpools/wordpool_EN.txt,6,2,ARM,SLEEVE,ARM,BATH,12,"[0, 0, 0]",-999,PAL1,0,R1001P
1740.956,0.999,1008203,START,n/a,n/a,-999,-999,n/a,n/a,n/a,n/a,12,"[-999, -999, -999]",-999,PAL1,0,R1001P
1741.955,0.017,1008702,MATH_START,n/a,n/a,-999,-999,n/a,n/a,n/a,n/a,12,"[0, 0, 0]",-999,PAL1,0,R1001P
1741.972,21.441,1008711,PROB,21.441,n/a,-999,-999,n/a,n/a,n/a,n/a,12,"[9, 7, 2]",18,PAL1,0,R1001P
1763.413,0.013,1019431,STOP,n/a,n/a,-999,-999,n/a,n/a,n/a,n/a,12,"[-999, -999, -999]",-999,PAL1,0,R1001P
1763.426,0.0,1019437,TEST_START,n/a,n/a,-999,-999,n/a,n/a,n/a,n/a,12,"[0, 0, 0]",-999,PAL1,0,R1001P
1763.426,0.017,1019437,MATH_END,n/a,n/a,-999,-999,n/a,n/a,n/a,n/a,12,"[0, 0, 0]",-999,PAL1,0,R1001P
1763.443,0.275,1019446,TEST_ORIENT,n/a,n/a,3,1,CANE,SLEEK,CANE,DART,12,"[0, 0, 0]",-999,PAL1,0,R1001P
1764.393,4.0,1019921,TEST_PROBE,n/a,wordpools/wordpool_EN.txt,3,1,CANE,SLEEK,CANE,DART,12,"[0, 0, 0]",-999,PAL1,0,R1001P
1764.394,2.441,1019921,REC_START,n/a,n/a,3,-999,n/a,SLEEK,n/a,n/a,12,"[0, 0, 0]",-999,PAL1,0,R1001P
1766.835,2.573,1021142,REC_EVENT,2.441,n/a,3,1,CANE,SLEEK,CANE,DART,12,"[0, 0, 0]",-999,PAL1,0,R1001P
1769.408,0.02,1022428,REC_END,n/a,n/a,3,-999,n/a,n/a,n/a,n/a,12,"[0, 0, 0]",-999,PAL1,0,R1001P
1769.428,0.275,1022438,TEST_ORIENT,n/a,n/a,6,2,ARM,SLEEVE,ARM,BATH,12,"[0, 0, 0]",-999,PAL1,0,R1001P
1770.328,4.0,1022888,TEST_PROBE,n/a,wordpools/wordpool_EN.txt,6,2,ARM,SLEEVE,ARM,BATH,12,"[0, 0, 0]",-999,PAL1,0,R1001P
1770.328,4.155,1022888,REC_START,n/a,n/a,6,-999,n/a,SLEEVE,n/a,n/a,12,"[0, 0, 0]",-999,PAL1,0,R1001P
1774.483,0.862,1024965,REC_EVENT,4.155,n/a,6,2,ARM,SLEEVE,ARM,BATH,12,"[0, 0, 0]",-999,PAL1,0,R1001P
1775.345,0.017,1025396,REC_END,n/a,n/a,6,-999,n/a,n/a,n/a,n/a,12,"[0, 0, 0]",-999,PAL1,0,R1001P
1775.362,0.275,1025405,TEST_ORIENT,n/a,n/a,1,3,BROOM,n/a,FUDGE,BROOM,12,"[0, 0, 0]",-999,PAL1,0,R1001P
1776.229,4.0,1025838,TEST_PROBE,n/a,wordpools/wordpool_EN.txt,1,3,BROOM,n/a,FUDGE,BROOM,12,"[0, 0, 0]",-999,PAL1,0,R1001P
1776.23,5.016,1025839,REC_START,n/a,n/a,1,-999,n/a,n/a,n/a,n/a,12,"[0, 0, 0]",-999,PAL1,0,R1001P
1781.246,0.005,1028347,REC_END,n/a,n/a,1,-999,n/a,n/a,n/a,n/a,12,"[0, 0, 0]",-999,PAL1,0,R1001P
1781.251,0.012,1028349,REC_EVENT,5.021,n/a,1,3,BROOM,<>,FUDGE,BROOM,12,"[0, 0, 0]",-999,PAL1,0,R1001P
1781.263,0.275,1028355,TEST_ORIENT,n/a,n/a,4,4,SWORD,CAKE,TIE,SWORD,12,"[0, 0, 0]",-999,PAL1,0,R1001P
1782.297,0.0,1028872,REC_START,n/a,n/a,4,-999,n/a,CAKE,n/a,n/a,12,"[0, 0, 0]",-999,PAL1,0,R1001P
1782.297,4.0,1028872,TEST_PROBE,n/a,wordpools/wordpool_EN.txt,4,4,SWORD,CAKE,TIE,SWORD,12,"[0, 0, 0]",-999,PAL1,0,R1001P
1785.11,0.274,1030279,REC_EVENT,2.813,n/a,4,4,SWORD,<>,TIE,SWORD,12,"[0, 0, 0]",-999,PAL1,0,R1001P
1785.384,1.93,1030416,REC_EVENT,3.087,n/a,4,4,SWORD,CAKE,TIE,SWORD,12,"[0, 0, 0]",-999,PAL1,0,R1001P
1787.314,0.017,1031381,REC_END,n/a,n/a,4,-999,n/a,n/a,n/a,n/a,12,"[0, 0, 0]",-999,PAL1,0,R1001P
1787.331,0.275,1031389,TEST_ORIENT,n/a,n/a,5,5,SLEEVE,CAN,SLEEVE,NET,12,"[0, 0, 0]",-999,PAL1,0,R1001P
1788.248,4.0,1031848,TEST_PROBE,n/a,wordpools/wordpool_EN.txt,5,5,SLEEVE,CAN,SLEEVE,NET,12,"[0, 0, 0]",-999,PAL1,0,R1001P
1788.248,4.631,1031848,REC_START,n/a,n/a,5,-999,n/a,CAN,n/a,n/a,12,"[0, 0, 0]",-999,PAL1,0,R1001P
1792.879,0.386,1034163,REC_EVENT,4.631,n/a,5,5,SLEEVE,CAN,SLEEVE,NET,12,"[0, 0, 0]",-999,PAL1,0,R1001P
1793.265,0.017,1034356,REC_END,n/a,n/a,5,-999,n/a,n/a,n/a,n/a,12,"[0, 0, 0]",-999,PAL1,0,R1001P
1793.282,0.275,1034364,TEST_ORIENT,n/a,n/a,2,6,PEAR,FRUIT,LEAF,PEAR,12,"[0, 0, 0]",-999,PAL1,0,R1001P
1794.182,4.0,1034814,TEST_PROBE,n/a,wordpools/wordpool_EN.txt,2,6,PEAR,FRUIT,LEAF,PEAR,12,"[0, 0, 0]",-999,PAL1,0,R1001P
1794.183,4.086,1034815,REC_START,n/a,n/a,2,-999,n/a,FRUIT,n/a,n/a,12,"[0, 0, 0]",-999,PAL1,0,R1001P
1798.269,0.923,1036858,REC_EVENT,4.086,n/a,2,6,PEAR,FRUIT,LEAF,PEAR,12,"[0, 0, 0]",-999,PAL1,0,R1001P
1799.192,2.077,1037319,REC_END,n/a,n/a,2,-999,n/a,n/a,n/a,n/a,12,"[0, 0, 0]",-999,PAL1,0,R1001P
1801.269,10.45,1038358,ENCODING_START,n/a,n/a,0,-999,n/a,n/a,n/a,n/a,13,"[0, 0, 0]",-999,PAL1,0,R1001P
1811.719,0.275,1043582,STUDY_ORIENT,n/a,n/a,1,3,SKI,n/a,SKI,BADGE,13,"[0, 0, 0]",-999,PAL1,0,R1001P
1812.569,4.0,1044007,STUDY_PAIR,n/a,wordpools/wordpool_EN.txt,1,3,SKI,n/a,SKI,BADGE,13,"[0, 0, 0]",-999,PAL1,0,R1001P
1817.587,0.275,1046516,STUDY_ORIENT,n/a,n/a,2,6,TRASH,n/a,TRASH,JAIL,13,"[0, 0, 0]",-999,PAL1,0,R1001P
1818.404,4.0,1046925,STUDY_PAIR,n/a,wordpools/wordpool_EN.txt,2,6,TRASH,n/a,TRASH,JAIL,13,"[0, 0, 0]",-999,PAL1,0,R1001P
1823.438,0.275,1049442,STUDY_ORIENT,n/a,n/a,3,5,JAR,COAT,JUICE,JAR,13,"[0, 0, 0]",-999,PAL1,0,R1001P
1824.405,4.0,1049925,STUDY_PAIR,n/a,wordpools/wordpool_EN.txt,3,5,JAR,COAT,JUICE,JAR,13,"[0, 0, 0]",-999,PAL1,0,R1001P
1829.439,0.275,1052442,STUDY_ORIENT,n/a,n/a,4,4,SNAKE,n/a,SNAKE,OAR,13,"[0, 0, 0]",-999,PAL1,0,R1001P
1830.373,4.0,1052909,STUDY_PAIR,n/a,wordpools/wordpool_EN.txt,4,4,SNAKE,n/a,SNAKE,OAR,13,"[0, 0, 0]",-999,PAL1,0,R1001P
1835.407,0.275,1055426,STUDY_ORIENT,n/a,n/a,5,1,WOLF,JAR,WOLF,SOAP,13,"[0, 0, 0]",-999,PAL1,0,R1001P
1836.207,4.0,1055826,STUDY_PAIR,n/a,wordpools/wordpool_EN.txt,5,1,WOLF,JAR,WOLF,SOAP,13,"[0, 0, 0]",-999,PAL1,0,R1001P
1841.225,0.275,1058335,STUDY_ORIENT,n/a,n/a,6,2,PHONE,n/a,SHELL,PHONE,13,"[0, 0, 0]",-999,PAL1,0,R1001P
1842.042,4.0,1058743,STUDY_PAIR,n/a,wordpools/wordpool_EN.txt,6,2,PHONE,n/a,SHELL,PHONE,13,"[0, 0, 0]",-999,PAL1,0,R1001P
1846.059,1.0,1060751,START,n/a,n/a,-999,-999,n/a,n/a,n/a,n/a,13,"[-999, -999, -999]",-999,PAL1,0,R1001P
1847.059,0.017,1061251,MATH_START,n/a,n/a,-999,-999,n/a,n/a,n/a,n/a,13,"[0, 0, 0]",-999,PAL1,0,R1001P
1847.076,13.052,1061260,PROB,13.033,n/a,-999,-999,n/a,n/a,n/a,n/a,13,"[7, 4, 7]",18,PAL1,0,R1001P
1860.128,25.885,1067786,PROB,25.885,n/a,-999,-999,n/a,n/a,n/a,n/a,13,"[9, 5, 2]",16,PAL1,0,R1001P
1886.013,0.02,1080727,STOP,n/a,n/a,-999,-999,n/a,n/a,n/a,n/a,13,"[-999, -999, -999]",-999,PAL1,0,R1001P
1886.033,0.0,1080737,MATH_END,n/a,n/a,-999,-999,n/a,n/a,n/a,n/a,13,"[0, 0, 0]",-999,PAL1,0,R1001P
1886.033,0.017,1080737,TEST_START,n/a,n/a,-999,-999,n/a,n/a,n/a,n/a,13,"[0, 0, 0]",-999,PAL1,0,R1001P
1886.05,0.275,1080746,TEST_ORIENT,n/a,n/a,5,1,WOLF,JAR,WOLF,SOAP,13,"[0, 0, 0]",-999,PAL1,0,R1001P
1886.917,4.0,1081179,TEST_PROBE,n/a,wordpools/wordpool_EN.txt,5,1,WOLF,JAR,WOLF,SOAP,13,"[0, 0, 0]",-999,PAL1,0,R1001P
1886.917,3.364,1081179,REC_START,n/a,n/a,5,-999,n/a,JAR,n/a,n/a,13,"[0, 0, 0]",-999,PAL1,0,R1001P
1890.281,1.653,1082861,REC_EVENT,3.364,n/a,5,1,WOLF,JAR,WOLF,SOAP,13,"[0, 0, 0]",-999,PAL1,0,R1001P
1891.934,0.017,1083688,REC_END,n/a,n/a,5,-999,n/a,n/a,n/a,n/a,13,"[0, 0, 0]",-999,PAL1,0,R1001P
1891.951,0.275,1083696,TEST_ORIENT,n/a,n/a,6,2,PHONE,n/a,SHELL,PHONE,13,"[0, 0, 0]",-999,PAL1,0,R1001P
1892.818,0.0,1084130,REC_START,n/a,n/a,6,-999,n/a,n/a,n/a,n/a,13,"[0, 0, 0]",-999,PAL1,0,R1001P
1892.818,4.0,1084130,TEST_PROBE,n/a,wordpools/wordpool_EN.txt,6,2,PHONE,n/a,SHELL,PHONE,13,"[0, 0, 0]",-999,PAL1,0,R1001P
1897.833,0.002,1086637,REC_EVENT,5.015,n/a,6,2,PHONE,<>,SHELL,PHONE,13,"[0, 0, 0]",-999,PAL1,0,R1001P
1897.835,0.017,1086638,REC_END,n/a,n/a,6,-999,n/a,n/a,n/a,n/a,13,"[0, 0, 0]",-999,PAL1,0,R1001P
1897.852,0.275,1086647,TEST_ORIENT,n/a,n/a,1,3,SKI,n/a,SKI,BADGE,13,"[0, 0, 0]",-999,PAL1,0,R1001P
1898.686,4.0,1087064,TEST_PROBE,n/a,wordpools/wordpool_EN.txt,1,3,SKI,n/a,SKI,BADGE,13,"[0, 0, 0]",-999,PAL1,0,R1001P
1898.686,5.015,1087064,REC_START,n/a,n/a,1,-999,n/a,n/a,n/a,n/a,13,"[0, 0, 0]",-999,PAL1,0,R1001P
1903.701,0.002,1089571,REC_EVENT,5.015,n/a,1,3,SKI,<>,SKI,BADGE,13,"[0, 0, 0]",-999,PAL1,0,R1001P
1903.703,0.017,1089572,REC_END,n/a,n/a,1,-999,n/a,n/a,n/a,n/a,13,"[0, 0, 0]",-999,PAL1,0,R1001P
1903.72,0.275,1089580,TEST_ORIENT,n/a,n/a,4,4,SNAKE,n/a,SNAKE,OAR,13,"[0, 0, 0]",-999,PAL1,0,R1001P
1904.637,4.0,1090039,TEST_PROBE,n/a,wordpools/wordpool_EN.txt,4,4,SNAKE,n/a,SNAKE,OAR,13,"[0, 0, 0]",-999,PAL1,0,R1001P
1904.638,5.015,1090039,REC_START,n/a,n/a,4,-999,n/a,n/a,n/a,n/a,13,"[0, 0, 0]",-999,PAL1,0,R1001P
1909.653,0.001,1092547,REC_EVENT,5.015,n/a,4,4,SNAKE,<>,SNAKE,OAR,13,"[0, 0, 0]",-999,PAL1,0,R1001P
1909.654,0.017,1092547,REC_END,n/a,n/a,4,-999,n/a,n/a,n/a,n/a,13,"[0, 0, 0]",-999,PAL1,0,R1001P
1909.671,0.275,1092556,TEST_ORIENT,n/a,n/a,3,5,JAR,COAT,JUICE,JAR,13,"[0, 0, 0]",-999,PAL1,0,R1001P
1910.638,4.0,1093039,TEST_PROBE,n/a,wordpools/wordpool_EN.txt,3,5,JAR,COAT,JUICE,JAR,13,"[0, 0, 0]",-999,PAL1,0,R1001P
1910.639,4.032,1093040,REC_START,n/a,n/a,3,-999,n/a,COAT,n/a,n/a,13,"[0, 0, 0]",-999,PAL1,0,R1001P
1914.671,1.001,1095056,REC_EVENT,4.032,n/a,3,5,JAR,COAT,JUICE,JAR,13,"[0, 0, 0]",-999,PAL1,0,R1001P
1915.672,0.017,1095556,REC_END,n/a,n/a,3,-999,n/a,n/a,n/a,n/a,13,"[0, 0, 0]",-999,PAL1,0,R1001P
1915.689,0.275,1095565,TEST_ORIENT,n/a,n/a,2,6,TRASH,n/a,TRASH,JAIL,13,"[0, 0, 0]",-999,PAL1,0,R1001P
1916.689,4.0,1096065,TEST_PROBE,n/a,wordpools/wordpool_EN.txt,2,6,TRASH,n/a,TRASH,JAIL,13,"[0, 0, 0]",-999,PAL1,0,R1001P
1916.69,5.008,1096065,REC_START,n/a,n/a,2,-999,n/a,n/a,n/a,n/a,13,"[0, 0, 0]",-999,PAL1,0,R1001P
1921.698,0.001,1098569,REC_END,n/a,n/a,2,-999,n/a,n/a,n/a,n/a,13,"[0, 0, 0]",-999,PAL1,0,R1001P
1921.699,1.69,1098569,REC_EVENT,5.009,n/a,2,6,TRASH,<>,TRASH,JAIL,13,"[0, 0, 0]",-999,PAL1,0,R1001P
1923.389,10.454,1099414,ENCODING_START,n/a,n/a,0,-999,n/a,n/a,n/a,n/a,14,"[0, 0, 0]",-999,PAL1,0,R1001P
1933.843,0.275,1104641,STUDY_ORIENT,n/a,n/a,1,5,CORD,RAIN,CORD,DEER,14,"[0, 0, 0]",-999,PAL1,0,R1001P
1934.71,4.0,1105075,STUDY_PAIR,n/a,wordpools/wordpool_EN.txt,1,5,CORD,RAIN,CORD,DEER,14,"[0, 0, 0]",-999,PAL1,0,R1001P
1939.744,0.275,1107591,STUDY_ORIENT,n/a,n/a,2,4,MILK,n/a,CUBE,MILK,14,"[0, 0, 0]",-999,PAL1,0,R1001P
1940.544,4.0,1107991,STUDY_PAIR,n/a,wordpools/wordpool_EN.txt,2,4,MILK,n/a,CUBE,MILK,14,"[0, 0, 0]",-999,PAL1,0,R1001P
1945.578,0.275,1110508,STUDY_ORIENT,n/a,n/a,3,3,PIG,n/a,TENT,PIG,14,"[0, 0, 0]",-999,PAL1,0,R1001P
1946.562,4.0,1111000,STUDY_PAIR,n/a,wordpools/wordpool_EN.txt,3,3,PIG,n/a,TENT,PIG,14,"[0, 0, 0]",-999,PAL1,0,R1001P
1951.596,0.275,1113517,STUDY_ORIENT,n/a,n/a,4,2,PIPE,n/a,PIPE,MAZE,14,"[0, 0, 0]",-999,PAL1,0,R1001P
1952.396,4.0,1113917,STUDY_PAIR,n/a,wordpools/wordpool_EN.txt,4,2,PIPE,n/a,PIPE,MAZE,14,"[0, 0, 0]",-999,PAL1,0,R1001P
1957.414,0.275,1116426,STUDY_ORIENT,n/a,n/a,5,1,CHIEF,FENCE,CHIEF,FENCE,14,"[0, 0, 0]",-999,PAL1,0,R1001P
1958.264,4.0,1116851,STUDY_PAIR,n/a,wordpools/wordpool_EN.txt,5,1,CHIEF,FENCE,CHIEF,FENCE,14,"[0, 0, 0]",-999,PAL1,0,R1001P
1963.298,0.275,1119368,STUDY_ORIENT,n/a,n/a,6,6,EAR,NAIL,NAIL,EAR,14,"[0, 0, 0]",-999,PAL1,0,R1001P
1964.249,4.0,1119843,STUDY_PAIR,n/a,wordpools/wordpool_EN.txt,6,6,EAR,NAIL,NAIL,EAR,14,"[0, 0, 0]",-999,PAL1,0,R1001P
1968.267,0.999,1121852,START,n/a,n/a,-999,-999,n/a,n/a,n/a,n/a,14,"[-999, -999, -999]",-999,PAL1,0,R1001P
1969.266,0.017,1122352,MATH_START,n/a,n/a,-999,-999,n/a,n/a,n/a,n/a,14,"[0, 0, 0]",-999,PAL1,0,R1001P
1969.283,11.852,1122360,PROB,11.819,n/a,-999,-999,n/a,n/a,n/a,n/a,14,"[8, 2, 8]",18,PAL1,0,R1001P
1981.135,15.294,1128286,PROB,15.294,n/a,-999,-999,n/a,n/a,n/a,n/a,14,"[3, 8, 5]",16,PAL1,0,R1001P
1996.429,0.009,1135932,STOP,n/a,n/a,-999,-999,n/a,n/a,n/a,n/a,14,"[-999, -999, -999]",-999,PAL1,0,R1001P
1996.438,0.0,1135937,MATH_END,n/a,n/a,-999,-999,n/a,n/a,n/a,n/a,14,"[0, 0, 0]",-999,PAL1,0,R1001P
1996.438,0.017,1135937,TEST_START,n/a,n/a,-999,-999,n/a,n/a,n/a,n/a,14,"[0, 0, 0]",-999,PAL1,0,R1001P
1996.455,0.275,1135945,TEST_ORIENT,n/a,n/a,5,1,CHIEF,FENCE,CHIEF,FENCE,14,"[0, 0, 0]",-999,PAL1,0,R1001P
1997.488,4.0,1136462,TEST_PROBE,n/a,wordpools/wordpool_EN.txt,5,1,CHIEF,FENCE,CHIEF,FENCE,14,"[0, 0, 0]",-999,PAL1,0,R1001P
1997.489,1.348,1136462,REC_START,n/a,n/a,5,-999,n/a,FENCE,n/a,n/a,14,"[0, 0, 0]",-999,PAL1,0,R1001P
1998.837,3.661,1137136,REC_EVENT,1.348,n/a,5,1,CHIEF,FENCE,CHIEF,FENCE,14,"[0, 0, 0]",-999,PAL1,0,R1001P
2002.498,0.008,1138967,REC_END,n/a,n/a,5,-999,n/a,n/a,n/a,n/a,14,"[0, 0, 0]",-999,PAL1,0,R1001P
2002.506,0.275,1138971,TEST_ORIENT,n/a,n/a,4,2,PIPE,n/a,PIPE,MAZE,14,"[0, 0, 0]",-999,PAL1,0,R1001P
2003.339,4.0,1139387,TEST_PROBE,n/a,wordpools/wordpool_EN.txt,4,2,PIPE,n/a,PIPE,MAZE,14,"[0, 0, 0]",-999,PAL1,0,R1001P
2003.34,5.008,1139388,REC_START,n/a,n/a,4,-999,n/a,n/a,n/a,n/a,14,"[0, 0, 0]",-999,PAL1,0,R1001P
2008.348,0.001,1141892,REC_END,n/a,n/a,4,-999,n/a,n/a,n/a,n/a,14,"[0, 0, 0]",-999,PAL1,0,R1001P
2008.349,0.008,1141892,REC_EVENT,5.009,n/a,4,2,PIPE,<>,PIPE,MAZE,14,"[0, 0, 0]",-999,PAL1,0,R1001P
2008.357,0.275,1141896,TEST_ORIENT,n/a,n/a,3,3,PIG,n/a,TENT,PIG,14,"[0, 0, 0]",-999,PAL1,0,R1001P
2009.374,4.0,1142405,TEST_PROBE,n/a,wordpools/wordpool_EN.txt,3,3,PIG,n/a,TENT,PIG,14,"[0, 0, 0]",-999,PAL1,0,R1001P
2009.374,5.015,1142405,REC_START,n/a,n/a,3,-999,n/a,n/a,n/a,n/a,14,"[0, 0, 0]",-999,PAL1,0,R1001P
2014.389,0.002,1144912,REC_EVENT,5.015,n/a,3,3,PIG,<>,TENT,PIG,14,"[0, 0, 0]",-999,PAL1,0,R1001P
2014.391,0.017,1144913,REC_END,n/a,n/a,3,-999,n/a,n/a,n/a,n/a,14,"[0, 0, 0]",-999,PAL1,0,R1001P
2014.408,0.275,1144921,TEST_ORIENT,n/a,n/a,2,4,MILK,n/a,CUBE,MILK,14,"[0, 0, 0]",-999,PAL1,0,R1001P
2015.392,4.0,1145413,TEST_PROBE,n/a,wordpools/wordpool_EN.txt,2,4,MILK,n/a,CUBE,MILK,14,"[0, 0, 0]",-999,PAL1,0,R1001P
2015.392,5.015,1145413,REC_START,n/a,n/a,2,-999,n/a,n/a,n/a,n/a,14,"[0, 0, 0]",-999,PAL1,0,R1001P
2020.407,0.002,1147921,REC_EVENT,5.015,n/a,2,4,MILK,<>,CUBE,MILK,14,"[0, 0, 0]",-999,PAL1,0,R1001P
2020.409,0.017,1147922,REC_END,n/a,n/a,2,-999,n/a,n/a,n/a,n/a,14,"[0, 0, 0]",-999,PAL1,0,R1001P
2020.426,0.275,1147930,TEST_ORIENT,n/a,n/a,1,5,CORD,RAIN,CORD,DEER,14,"[0, 0, 0]",-999,PAL1,0,R1001P
2021.41,4.0,1148422,TEST_PROBE,n/a,wordpools/wordpool_EN.txt,1,5,CORD,RAIN,CORD,DEER,14,"[0, 0, 0]",-999,PAL1,0,R1001P
2021.41,1.45,1148422,REC_START,n/a,n/a,1,-999,n/a,RAIN,n/a,n/a,14,"[0, 0, 0]",-999,PAL1,0,R1001P
2022.86,0.436,1149147,REC_EVENT,1.45,n/a,1,5,CORD,CORD,CORD,DEER,14,"[0, 0, 0]",-999,PAL1,0,R1001P
2023.296,0.144,1149365,REC_EVENT,1.886,n/a,1,5,CORD,<>,CORD,DEER,14,"[0, 0, 0]",-999,PAL1,0,R1001P
2023.44,2.987,1149437,REC_EVENT,2.03,n/a,1,5,CORD,RAIN,CORD,DEER,14,"[0, 0, 0]",-999,PAL1,0,R1001P
2026.427,0.017,1150931,REC_END,n/a,n/a,1,-999,n/a,n/a,n/a,n/a,14,"[0, 0, 0]",-999,PAL1,0,R1001P
2026.444,0.275,1150939,TEST_ORIENT,n/a,n/a,6,6,EAR,NAIL,NAIL,EAR,14,"[0, 0, 0]",-999,PAL1,0,R1001P
2027.361,4.0,1151398,TEST_PROBE,n/a,wordpools/wordpool_EN.txt,6,6,EAR,NAIL,NAIL,EAR,14,"[0, 0, 0]",-999,PAL1,0,R1001P
2027.361,1.615,1151398,REC_START,n/a,n/a,6,-999,n/a,NAIL,n/a,n/a,14,"[0, 0, 0]",-999,PAL1,0,R1001P
2028.976,0.661,1152205,REC_EVENT,1.615,n/a,6,6,EAR,EAR,NAIL,EAR,14,"[0, 0, 0]",-999,PAL1,0,R1001P
2029.637,2.741,1152536,REC_EVENT,2.276,n/a,6,6,EAR,NAIL,NAIL,EAR,14,"[0, 0, 0]",-999,PAL1,0,R1001P
2032.378,1.659,1153906,REC_END,n/a,n/a,6,-999,n/a,n/a,n/a,n/a,14,"[0, 0, 0]",-999,PAL1,0,R1001P
2034.037,10.444,1154735,ENCODING_START,n/a,n/a,0,-999,n/a,n/a,n/a,n/a,15,"[0, 0, 0]",-999,PAL1,0,R1001P
2044.481,0.275,1159957,STUDY_ORIENT,n/a,n/a,1,5,DOG,YARD,JET,DOG,15,"[0, 0, 0]",-999,PAL1,0,R1001P
2045.448,4.0,1160441,STUDY_PAIR,n/a,wordpools/wordpool_EN.txt,1,5,DOG,YARD,JET,DOG,15,"[0, 0, 0]",-999,PAL1,0,R1001P
2050.482,0.275,1162958,STUDY_ORIENT,n/a,n/a,2,6,SOCK,n/a,BEAR,SOCK,15,"[0, 0, 0]",-999,PAL1,0,R1001P
2051.482,4.0,1163458,STUDY_PAIR,n/a,wordpools/wordpool_EN.txt,2,6,SOCK,n/a,BEAR,SOCK,15,"[0, 0, 0]",-999,PAL1,0,R1001P
2056.516,0.275,1165974,STUDY_ORIENT,n/a,n/a,3,1,LAMB,n/a,SHIELD,LAMB,15,"[0, 0, 0]",-999,PAL1,0,R1001P
2057.383,4.0,1166408,STUDY_PAIR,n/a,wordpools/wordpool_EN.txt,3,1,LAMB,n/a,SHIELD,LAMB,15,"[0, 0, 0]",-999,PAL1,0,R1001P
2062.417,0.275,1168925,STUDY_ORIENT,n/a,n/a,4,2,PEN,n/a,CHEEK,PEN,15,"[0, 0, 0]",-999,PAL1,0,R1001P
2063.368,4.0,1169400,STUDY_PAIR,n/a,wordpools/wordpool_EN.txt,4,2,PEN,n/a,CHEEK,PEN,15,"[0, 0, 0]",-999,PAL1,0,R1001P
2068.402,0.275,1171917,STUDY_ORIENT,n/a,n/a,5,3,MAT,MAT,OAK,MAT,15,"[0, 0, 0]",-999,PAL1,0,R1001P
2069.219,4.0,1172326,STUDY_PAIR,n/a,wordpools/wordpool_EN.txt,5,3,MAT,MAT,OAK,MAT,15,"[0, 0, 0]",-999,PAL1,0,R1001P
2074.253,0.275,1174842,STUDY_ORIENT,n/a,n/a,6,4,DITCH,DOG,WAVE,DITCH,15,"[0, 0, 0]",-999,PAL1,0,R1001P
2075.22,4.0,1175326,STUDY_PAIR,n/a,wordpools/wordpool_EN.txt,6,4,DITCH,DOG,WAVE,DITCH,15,"[0, 0, 0]",-999,PAL1,0,R1001P
2079.238,0.999,1177335,START,n/a,n/a,-999,-999,n/a,n/a,n/a,n/a,15,"[-999, -999, -999]",-999,PAL1,0,R1001P
2080.237,0.017,1177834,MATH_START,n/a,n/a,-999,-999,n/a,n/a,n/a,n/a,15,"[0, 0, 0]",-999,PAL1,0,R1001P
2080.254,10.202,1177843,PROB,10.183,n/a,-999,-999,n/a,n/a,n/a,n/a,15,"[1, 5, 9]",15,PAL1,0,R1001P
2090.456,5.485,1182943,PROB,5.453,n/a,-999,-999,n/a,n/a,n/a,n/a,15,"[1, 9, 2]",12,PAL1,0,R1001P
2095.941,7.56,1185686,PROB,7.56,n/a,-999,-999,n/a,n/a,n/a,n/a,15,"[9, 1, 4]",14,PAL1,0,R1001P
2103.501,0.008,1189466,STOP,n/a,n/a,-999,-999,n/a,n/a,n/a,n/a,15,"[-999, -999, -999]",-999,PAL1,0,R1001P
2103.509,0.0,1189470,MATH_END,n/a,n/a,-999,-999,n/a,n/a,n/a,n/a,15,"[0, 0, 0]",-999,PAL1,0,R1001P
2103.509,0.016,1189470,TEST_START,n/a,n/a,-999,-999,n/a,n/a,n/a,n/a,15,"[0, 0, 0]",-999,PAL1,0,R1001P
2103.525,0.275,1189478,TEST_ORIENT,n/a,n/a,3,1,LAMB,n/a,SHIELD,LAMB,15,"[0, 0, 0]",-999,PAL1,0,R1001P
2104.475,4.0,1189953,TEST_PROBE,n/a,wordpools/wordpool_EN.txt,3,1,LAMB,n/a,SHIELD,LAMB,15,"[0, 0, 0]",-999,PAL1,0,R1001P
2104.476,5.009,1189953,REC_START,n/a,n/a,3,-999,n/a,n/a,n/a,n/a,15,"[0, 0, 0]",-999,PAL1,0,R1001P
2109.485,0.0,1192457,REC_END,n/a,n/a,3,-999,n/a,n/a,n/a,n/a,15,"[0, 0, 0]",-999,PAL1,0,R1001P
2109.485,0.008,1192457,REC_EVENT,5.009,n/a,3,1,LAMB,<>,SHIELD,LAMB,15,"[0, 0, 0]",-999,PAL1,0,R1001P
2109.493,0.275,1192461,TEST_ORIENT,n/a,n/a,4,2,PEN,n/a,CHEEK,PEN,15,"[0, 0, 0]",-999,PAL1,0,R1001P
2110.493,4.0,1192961,TEST_PROBE,n/a,wordpools/wordpool_EN.txt,4,2,PEN,n/a,CHEEK,PEN,15,"[0, 0, 0]",-999,PAL1,0,R1001P
2110.494,5.009,1192962,REC_START,n/a,n/a,4,-999,n/a,n/a,n/a,n/a,15,"[0, 0, 0]",-999,PAL1,0,R1001P
2115.503,0.0,1195466,REC_EVENT,5.009,n/a,4,2,PEN,<>,CHEEK,PEN,15,"[0, 0, 0]",-999,PAL1,0,R1001P
2115.503,0.008,1195466,REC_END,n/a,n/a,4,-999,n/a,n/a,n/a,n/a,15,"[0, 0, 0]",-999,PAL1,0,R1001P
2115.511,0.275,1195470,TEST_ORIENT,n/a,n/a,5,3,MAT,MAT,OAK,MAT,15,"[0, 0, 0]",-999,PAL1,0,R1001P
2116.478,4.0,1195954,TEST_PROBE,n/a,wordpools/wordpool_EN.txt,5,3,MAT,MAT,OAK,MAT,15,"[0, 0, 0]",-999,PAL1,0,R1001P
2116.478,1.202,1195954,REC_START,n/a,n/a,5,-999,n/a,MAT,n/a,n/a,15,"[0, 0, 0]",-999,PAL1,0,R1001P
2117.68,0.942,1196555,REC_EVENT,1.202,n/a,5,3,MAT,MAT,OAK,MAT,15,"[0, 0, 0]",-999,PAL1,0,R1001P
2118.622,2.873,1197026,REC_EVENT,2.144,n/a,5,3,MAT,<>,OAK,MAT,15,"[0, 0, 0]",-999,PAL1,0,R1001P
2121.495,0.017,1198462,REC_END,n/a,n/a,5,-999,n/a,n/a,n/a,n/a,15,"[0, 0, 0]",-999,PAL1,0,R1001P
2121.512,0.275,1198471,TEST_ORIENT,n/a,n/a,6,4,DITCH,DOG,WAVE,DITCH,15,"[0, 0, 0]",-999,PAL1,0,R1001P
2122.512,4.0,1198971,TEST_PROBE,n/a,wordpools/wordpool_EN.txt,6,4,DITCH,DOG,WAVE,DITCH,15,"[0, 0, 0]",-999,PAL1,0,R1001P
2122.513,1.453,1198971,REC_START,n/a,n/a,6,-999,n/a,DOG,n/a,n/a,15,"[0, 0, 0]",-999,PAL1,0,R1001P
2123.966,0.571,1199698,REC_EVENT,1.453,n/a,6,4,DITCH,DITCH,WAVE,DITCH,15,"[0, 0, 0]",-999,PAL1,0,R1001P
2124.537,0.353,1199983,REC_EVENT,2.024,n/a,6,4,DITCH,<>,WAVE,DITCH,15,"[0, 0, 0]",-999,PAL1,0,R1001P
2124.89,2.64,1200160,REC_EVENT,2.377,n/a,6,4,DITCH,DOG,WAVE,DITCH,15,"[0, 0, 0]",-999,PAL1,0,R1001P
2127.53,0.017,1201479,REC_END,n/a,n/a,6,-999,n/a,n/a,n/a,n/a,15,"[0, 0, 0]",-999,PAL1,0,R1001P
2127.547,0.275,1201488,TEST_ORIENT,n/a,n/a,1,5,DOG,YARD,JET,DOG,15,"[0, 0, 0]",-999,PAL1,0,R1001P
2128.347,4.0,1201888,TEST_PROBE,n/a,wordpools/wordpool_EN.txt,1,5,DOG,YARD,JET,DOG,15,"[0, 0, 0]",-999,PAL1,0,R1001P
2128.347,4.491,1201888,REC_START,n/a,n/a,1,-999,n/a,YARD,n/a,n/a,15,"[0, 0, 0]",-999,PAL1,0,R1001P
2132.838,0.526,1204133,REC_EVENT,4.491,n/a,1,5,DOG,YARD,JET,DOG,15,"[0, 0, 0]",-999,PAL1,0,R1001P
2133.364,0.017,1204396,REC_END,n/a,n/a,1,-999,n/a,n/a,n/a,n/a,15,"[0, 0, 0]",-999,PAL1,0,R1001P
2133.381,0.275,1204405,TEST_ORIENT,n/a,n/a,2,6,SOCK,n/a,BEAR,SOCK,15,"[0, 0, 0]",-999,PAL1,0,R1001P
2134.181,4.0,1204805,TEST_PROBE,n/a,wordpools/wordpool_EN.txt,2,6,SOCK,n/a,BEAR,SOCK,15,"[0, 0, 0]",-999,PAL1,0,R1001P
2134.182,5.009,1204805,REC_START,n/a,n/a,2,-999,n/a,n/a,n/a,n/a,15,"[0, 0, 0]",-999,PAL1,0,R1001P
2139.191,0.0,1207310,REC_EVENT,5.009,n/a,2,6,SOCK,<>,BEAR,SOCK,15,"[0, 0, 0]",-999,PAL1,0,R1001P
2139.191,4.71,1207310,REC_END,n/a,n/a,2,-999,n/a,n/a,n/a,n/a,15,"[0, 0, 0]",-999,PAL1,0,R1001P
2143.901,10.451,1209665,ENCODING_START,n/a,n/a,0,-999,n/a,n/a,n/a,n/a,16,"[0, 0, 0]",-999,PAL1,0,R1001P
2154.352,0.275,1214890,STUDY_ORIENT,n/a,n/a,1,5,FACE,CHIN,FACE,DUCK,16,"[0, 0, 0]",-999,PAL1,0,R1001P
2155.352,4.0,1215390,STUDY_PAIR,n/a,wordpools/wordpool_EN.txt,1,5,FACE,CHIN,FACE,DUCK,16,"[0, 0, 0]",-999,PAL1,0,R1001P
2160.37,0.275,1217899,STUDY_ORIENT,n/a,n/a,2,2,HORN,n/a,TOAD,HORN,16,"[0, 0, 0]",-999,PAL1,0,R1001P
2161.17,4.0,1218299,STUDY_PAIR,n/a,wordpools/wordpool_EN.txt,2,2,HORN,n/a,TOAD,HORN,16,"[0, 0, 0]",-999,PAL1,0,R1001P
2166.204,0.275,1220815,STUDY_ORIENT,n/a,n/a,3,3,NOSE,FACE,PEA,NOSE,16,"[0, 0, 0]",-999,PAL1,0,R1001P
2167.138,4.0,1221282,STUDY_PAIR,n/a,wordpools/wordpool_EN.txt,3,3,NOSE,FACE,PEA,NOSE,16,"[0, 0, 0]",-999,PAL1,0,R1001P
2172.172,0.275,1223799,STUDY_ORIENT,n/a,n/a,4,6,FOOD,n/a,STEAM,FOOD,16,"[0, 0, 0]",-999,PAL1,0,R1001P
2173.056,4.0,1224241,STUDY_PAIR,n/a,wordpools/wordpool_EN.txt,4,6,FOOD,n/a,STEAM,FOOD,16,"[0, 0, 0]",-999,PAL1,0,R1001P
2178.09,0.275,1226758,STUDY_ORIENT,n/a,n/a,5,1,MUG,CUP,RIB,MUG,16,"[0, 0, 0]",-999,PAL1,0,R1001P
2179.007,4.0,1227217,STUDY_PAIR,n/a,wordpools/wordpool_EN.txt,5,1,MUG,CUP,RIB,MUG,16,"[0, 0, 0]",-999,PAL1,0,R1001P
2184.041,0.275,1229733,STUDY_ORIENT,n/a,n/a,6,4,BRICK,n/a,TRUCK,BRICK,16,"[0, 0, 0]",-999,PAL1,0,R1001P
2184.841,4.0,1230133,STUDY_PAIR,n/a,wordpools/wordpool_EN.txt,6,4,BRICK,n/a,TRUCK,BRICK,16,"[0, 0, 0]",-999,PAL1,0,R1001P
2188.842,1.0,1232134,START,n/a,n/a,-999,-999,n/a,n/a,n/a,n/a,16,"[-999, -999, -999]",-999,PAL1,0,R1001P
2189.842,0.017,1232634,MATH_START,n/a,n/a,-999,-999,n/a,n/a,n/a,n/a,16,"[0, 0, 0]",-999,PAL1,0,R1001P
2189.859,11.019,1232642,PROB,10.986,n/a,-999,-999,n/a,n/a,n/a,n/a,16,"[2, 8, 2]",12,PAL1,0,R1001P
2200.878,8.663,1238152,PROB,8.663,n/a,-999,-999,n/a,n/a,n/a,n/a,16,"[6, 9, 5]",20,PAL1,0,R1001P
2209.541,0.005,1242483,STOP,n/a,n/a,-999,-999,n/a,n/a,n/a,n/a,16,"[-999, -999, -999]",-999,PAL1,0,R1001P
2209.546,0.0,1242485,TEST_START,n/a,n/a,-999,-999,n/a,n/a,n/a,n/a,16,"[0, 0, 0]",-999,PAL1,0,R1001P
2209.546,0.017,1242485,MATH_END,n/a,n/a,-999,-999,n/a,n/a,n/a,n/a,16,"[0, 0, 0]",-999,PAL1,0,R1001P
2209.563,0.275,1242494,TEST_ORIENT,n/a,n/a,5,1,MUG,CUP,RIB,MUG,16,"[0, 0, 0]",-999,PAL1,0,R1001P
2210.413,4.0,1242919,TEST_PROBE,n/a,wordpools/wordpool_EN.txt,5,1,MUG,CUP,RIB,MUG,16,"[0, 0, 0]",-999,PAL1,0,R1001P
2210.413,2.767,1242919,REC_START,n/a,n/a,5,-999,n/a,CUP,n/a,n/a,16,"[0, 0, 0]",-999,PAL1,0,R1001P
2213.18,2.25,1244302,REC_EVENT,2.767,n/a,5,1,MUG,CUP,RIB,MUG,16,"[0, 0, 0]",-999,PAL1,0,R1001P
2215.43,0.017,1245427,REC_END,n/a,n/a,5,-999,n/a,n/a,n/a,n/a,16,"[0, 0, 0]",-999,PAL1,0,R1001P
2215.447,0.275,1245436,TEST_ORIENT,n/a,n/a,2,2,HORN,n/a,TOAD,HORN,16,"[0, 0, 0]",-999,PAL1,0,R1001P
2216.397,0.0,1245911,REC_START,n/a,n/a,2,-999,n/a,n/a,n/a,n/a,16,"[0, 0, 0]",-999,PAL1,0,R1001P
2216.397,4.0,1245911,TEST_PROBE,n/a,wordpools/wordpool_EN.txt,2,2,HORN,n/a,TOAD,HORN,16,"[0, 0, 0]",-999,PAL1,0,R1001P
2221.415,0.003,1248419,REC_END,n/a,n/a,2,-999,n/a,n/a,n/a,n/a,16,"[0, 0, 0]",-999,PAL1,0,R1001P
2221.418,0.014,1248421,REC_EVENT,5.021,n/a,2,2,HORN,<>,TOAD,HORN,16,"[0, 0, 0]",-999,PAL1,0,R1001P
2221.432,0.275,1248428,TEST_ORIENT,n/a,n/a,3,3,NOSE,FACE,PEA,NOSE,16,"[0, 0, 0]",-999,PAL1,0,R1001P
2222.315,4.0,1248869,TEST_PROBE,n/a,wordpools/wordpool_EN.txt,3,3,NOSE,FACE,PEA,NOSE,16,"[0, 0, 0]",-999,PAL1,0,R1001P
2222.316,3.702,1248870,REC_START,n/a,n/a,3,-999,n/a,FACE,n/a,n/a,16,"[0, 0, 0]",-999,PAL1,0,R1001P
2226.018,1.314,1250721,REC_EVENT,3.702,n/a,3,3,NOSE,FACE,PEA,NOSE,16,"[0, 0, 0]",-999,PAL1,0,R1001P
2227.332,0.017,1251378,REC_END,n/a,n/a,3,-999,n/a,n/a,n/a,n/a,16,"[0, 0, 0]",-999,PAL1,0,R1001P
2227.349,0.275,1251386,TEST_ORIENT,n/a,n/a,6,4,BRICK,n/a,TRUCK,BRICK,16,"[0, 0, 0]",-999,PAL1,0,R1001P
2228.25,4.0,1251837,TEST_PROBE,n/a,wordpools/wordpool_EN.txt,6,4,BRICK,n/a,TRUCK,BRICK,16,"[0, 0, 0]",-999,PAL1,0,R1001P
2228.25,5.015,1251837,REC_START,n/a,n/a,6,-999,n/a,n/a,n/a,n/a,16,"[0, 0, 0]",-999,PAL1,0,R1001P
2233.265,0.002,1254344,REC_EVENT,5.015,n/a,6,4,BRICK,<>,TRUCK,BRICK,16,"[0, 0, 0]",-999,PAL1,0,R1001P
2233.267,0.017,1254345,REC_END,n/a,n/a,6,-999,n/a,n/a,n/a,n/a,16,"[0, 0, 0]",-999,PAL1,0,R1001P
2233.284,0.275,1254354,TEST_ORIENT,n/a,n/a,1,5,FACE,CHIN,FACE,DUCK,16,"[0, 0, 0]",-999,PAL1,0,R1001P
2234.184,4.0,1254804,TEST_PROBE,n/a,wordpools/wordpool_EN.txt,1,5,FACE,CHIN,FACE,DUCK,16,"[0, 0, 0]",-999,PAL1,0,R1001P
2234.185,1.995,1254804,REC_START,n/a,n/a,1,-999,n/a,CHIN,n/a,n/a,16,"[0, 0, 0]",-999,PAL1,0,R1001P
2236.18,3.021,1255802,REC_EVENT,1.995,n/a,1,5,FACE,CHIN,FACE,DUCK,16,"[0, 0, 0]",-999,PAL1,0,R1001P
2239.201,0.017,1257312,REC_END,n/a,n/a,1,-999,n/a,n/a,n/a,n/a,16,"[0, 0, 0]",-999,PAL1,0,R1001P
2239.218,0.275,1257320,TEST_ORIENT,n/a,n/a,4,6,FOOD,n/a,STEAM,FOOD,16,"[0, 0, 0]",-999,PAL1,0,R1001P
2240.068,4.0,1257745,TEST_PROBE,n/a,wordpools/wordpool_EN.txt,4,6,FOOD,n/a,STEAM,FOOD,16,"[0, 0, 0]",-999,PAL1,0,R1001P
2240.069,5.009,1257746,REC_START,n/a,n/a,4,-999,n/a,n/a,n/a,n/a,16,"[0, 0, 0]",-999,PAL1,0,R1001P
2245.078,0.0,1260250,REC_EVENT,5.009,n/a,4,6,FOOD,<>,STEAM,FOOD,16,"[0, 0, 0]",-999,PAL1,0,R1001P
2245.078,4.511,1260250,REC_END,n/a,n/a,4,-999,n/a,n/a,n/a,n/a,16,"[0, 0, 0]",-999,PAL1,0,R1001P
2249.589,10.45,1262506,ENCODING_START,n/a,n/a,0,-999,n/a,n/a,n/a,n/a,17,"[0, 0, 0]",-999,PAL1,0,R1001P
2260.039,0.275,1267730,STUDY_ORIENT,n/a,n/a,1,1,SKY,n/a,SKY,AXE,17,"[0, 0, 0]",-999,PAL1,0,R1001P
2260.989,4.0,1268205,STUDY_PAIR,n/a,wordpools/wordpool_EN.txt,1,1,SKY,n/a,SKY,AXE,17,"[0, 0, 0]",-999,PAL1,0,R1001P
2266.007,0.275,1270714,STUDY_ORIENT,n/a,n/a,2,4,SALT,n/a,SALT,COUCH,17,"[0, 0, 0]",-999,PAL1,0,R1001P
2266.907,4.0,1271164,STUDY_PAIR,n/a,wordpools/wordpool_EN.txt,2,4,SALT,n/a,SALT,COUCH,17,"[0, 0, 0]",-999,PAL1,0,R1001P
2271.941,0.275,1273681,STUDY_ORIENT,n/a,n/a,3,5,WAND,n/a,WAND,SIGN,17,"[0, 0, 0]",-999,PAL1,0,R1001P
2272.892,4.0,1274157,STUDY_PAIR,n/a,wordpools/wordpool_EN.txt,3,5,WAND,n/a,WAND,SIGN,17,"[0, 0, 0]",-999,PAL1,0,R1001P
2277.926,0.275,1276673,STUDY_ORIENT,n/a,n/a,4,2,SHOE,n/a,BOX,SHOE,17,"[0, 0, 0]",-999,PAL1,0,R1001P
2278.759,4.0,1277090,STUDY_PAIR,n/a,wordpools/wordpool_EN.txt,4,2,SHOE,n/a,BOX,SHOE,17,"[0, 0, 0]",-999,PAL1,0,R1001P
2283.777,0.275,1279599,STUDY_ORIENT,n/a,n/a,5,3,FLUTE,n/a,FLUTE,CRANE,17,"[0, 0, 0]",-999,PAL1,0,R1001P
2284.61,4.0,1280015,STUDY_PAIR,n/a,wordpools/wordpool_EN.txt,5,3,FLUTE,n/a,FLUTE,CRANE,17,"[0, 0, 0]",-999,PAL1,0,R1001P
2289.628,0.275,1282524,STUDY_ORIENT,n/a,n/a,6,6,ROOM,n/a,ROOM,SPONGE,17,"[0, 0, 0]",-999,PAL1,0,R1001P
2290.462,4.0,1282941,STUDY_PAIR,n/a,wordpools/wordpool_EN.txt,6,6,ROOM,n/a,ROOM,SPONGE,17,"[0, 0, 0]",-999,PAL1,0,R1001P
2294.479,1.0,1284950,START,n/a,n/a,-999,-999,n/a,n/a,n/a,n/a,17,"[-999, -999, -999]",-999,PAL1,0,R1001P
2295.479,0.017,1285449,MATH_START,n/a,n/a,-999,-999,n/a,n/a,n/a,n/a,17,"[0, 0, 0]",-999,PAL1,0,R1001P
2295.496,73.269,1285458,PROB,73.269,n/a,-999,-999,n/a,n/a,n/a,n/a,17,"[9, 9, 6]",24,PAL1,0,R1001P
2368.765,0.012,1322091,STOP,n/a,n/a,-999,-999,n/a,n/a,n/a,n/a,17,"[-999, -999, -999]",-999,PAL1,0,R1001P
2368.777,0.0,1322097,TEST_START,n/a,n/a,-999,-999,n/a,n/a,n/a,n/a,17,"[0, 0, 0]",-999,PAL1,0,R1001P
2368.777,0.016,1322097,MATH_END,n/a,n/a,-999,-999,n/a,n/a,n/a,n/a,17,"[0, 0, 0]",-999,PAL1,0,R1001P
2368.793,0.275,1322105,TEST_ORIENT,n/a,n/a,1,1,SKY,n/a,SKY,AXE,17,"[0, 0, 0]",-999,PAL1,0,R1001P
2369.743,4.0,1322580,TEST_PROBE,n/a,wordpools/wordpool_EN.txt,1,1,SKY,n/a,SKY,AXE,17,"[0, 0, 0]",-999,PAL1,0,R1001P
2369.744,0.551,1322580,REC_START,n/a,n/a,1,-999,n/a,n/a,n/a,n/a,17,"[0, 0, 0]",-999,PAL1,0,R1001P
2370.295,4.457,1322855,REC_EVENT,0.551,n/a,1,1,SKY,<>,SKY,AXE,17,"[0, 0, 0]",-999,PAL1,0,R1001P
2374.752,0.009,1325084,REC_END,n/a,n/a,1,-999,n/a,n/a,n/a,n/a,17,"[0, 0, 0]",-999,PAL1,0,R1001P
2374.761,0.275,1325088,TEST_ORIENT,n/a,n/a,4,2,SHOE,n/a,BOX,SHOE,17,"[0, 0, 0]",-999,PAL1,0,R1001P
2375.745,0.0,1325580,REC_START,n/a,n/a,4,-999,n/a,n/a,n/a,n/a,17,"[0, 0, 0]",-999,PAL1,0,R1001P
2375.745,4.0,1325580,TEST_PROBE,n/a,wordpools/wordpool_EN.txt,4,2,SHOE,n/a,BOX,SHOE,17,"[0, 0, 0]",-999,PAL1,0,R1001P
2380.762,0.004,1328089,REC_END,n/a,n/a,4,-999,n/a,n/a,n/a,n/a,17,"[0, 0, 0]",-999,PAL1,0,R1001P
2380.766,0.013,1328091,REC_EVENT,5.021,n/a,4,2,SHOE,<>,BOX,SHOE,17,"[0, 0, 0]",-999,PAL1,0,R1001P
2380.779,0.275,1328097,TEST_ORIENT,n/a,n/a,5,3,FLUTE,n/a,FLUTE,CRANE,17,"[0, 0, 0]",-999,PAL1,0,R1001P
2381.713,4.0,1328564,TEST_PROBE,n/a,wordpools/wordpool_EN.txt,5,3,FLUTE,n/a,FLUTE,CRANE,17,"[0, 0, 0]",-999,PAL1,0,R1001P
2381.713,5.017,1328564,REC_START,n/a,n/a,5,-999,n/a,n/a,n/a,n/a,17,"[0, 0, 0]",-999,PAL1,0,R1001P
2386.73,0.004,1331073,REC_END,n/a,n/a,5,-999,n/a,n/a,n/a,n/a,17,"[0, 0, 0]",-999,PAL1,0,R1001P
2386.734,0.013,1331075,REC_EVENT,5.021,n/a,5,3,FLUTE,<>,FLUTE,CRANE,17,"[0, 0, 0]",-999,PAL1,0,R1001P
2386.747,0.275,1331081,TEST_ORIENT,n/a,n/a,2,4,SALT,n/a,SALT,COUCH,17,"[0, 0, 0]",-999,PAL1,0,R1001P
2387.63,4.0,1331523,TEST_PROBE,n/a,wordpools/wordpool_EN.txt,2,4,SALT,n/a,SALT,COUCH,17,"[0, 0, 0]",-999,PAL1,0,R1001P
2387.631,5.008,1331523,REC_START,n/a,n/a,2,-999,n/a,n/a,n/a,n/a,17,"[0, 0, 0]",-999,PAL1,0,R1001P
2392.639,0.001,1334027,REC_END,n/a,n/a,2,-999,n/a,n/a,n/a,n/a,17,"[0, 0, 0]",-999,PAL1,0,R1001P
2392.64,0.008,1334027,REC_EVENT,5.009,n/a,2,4,SALT,<>,SALT,COUCH,17,"[0, 0, 0]",-999,PAL1,0,R1001P
2392.648,0.275,1334031,TEST_ORIENT,n/a,n/a,3,5,WAND,n/a,WAND,SIGN,17,"[0, 0, 0]",-999,PAL1,0,R1001P
2393.465,4.0,1334440,TEST_PROBE,n/a,wordpools/wordpool_EN.txt,3,5,WAND,n/a,WAND,SIGN,17,"[0, 0, 0]",-999,PAL1,0,R1001P
2393.465,5.015,1334440,REC_START,n/a,n/a,3,-999,n/a,n/a,n/a,n/a,17,"[0, 0, 0]",-999,PAL1,0,R1001P
2398.48,0.002,1336947,REC_EVENT,5.015,n/a,3,5,WAND,<>,WAND,SIGN,17,"[0, 0, 0]",-999,PAL1,0,R1001P
2398.482,0.017,1336948,REC_END,n/a,n/a,3,-999,n/a,n/a,n/a,n/a,17,"[0, 0, 0]",-999,PAL1,0,R1001P
2398.499,0.275,1336957,TEST_ORIENT,n/a,n/a,6,6,ROOM,n/a,ROOM,SPONGE,17,"[0, 0, 0]",-999,PAL1,0,R1001P
2399.383,4.0,1337399,TEST_PROBE,n/a,wordpools/wordpool_EN.txt,6,6,ROOM,n/a,ROOM,SPONGE,17,"[0, 0, 0]",-999,PAL1,0,R1001P
2399.383,5.017,1337399,REC_START,n/a,n/a,6,-999,n/a,n/a,n/a,n/a,17,"[0, 0, 0]",-999,PAL1,0,R1001P
2404.4,0.004,1339907,REC_END,n/a,n/a,6,-999,n/a,n/a,n/a,n/a,17,"[0, 0, 0]",-999,PAL1,0,R1001P
2404.404,1.961,1339909,REC_EVENT,5.021,n/a,6,6,ROOM,<>,ROOM,SPONGE,17,"[0, 0, 0]",-999,PAL1,0,R1001P
2406.365,10.454,1340890,ENCODING_START,n/a,n/a,0,-999,n/a,n/a,n/a,n/a,18,"[0, 0, 0]",-999,PAL1,0,R1001P
2416.819,0.275,1346116,STUDY_ORIENT,n/a,n/a,1,3,GUARD,n/a,CLOUD,GUARD,18,"[0, 0, 0]",-999,PAL1,0,R1001P
2417.669,4.0,1346541,STUDY_PAIR,n/a,wordpools/wordpool_EN.txt,1,3,GUARD,n/a,CLOUD,GUARD,18,"[0, 0, 0]",-999,PAL1,0,R1001P
2422.687,0.275,1349050,STUDY_ORIENT,n/a,n/a,2,2,FLEA,n/a,FLEA,PURSE,18,"[0, 0, 0]",-999,PAL1,0,R1001P
2423.604,4.0,1349509,STUDY_PAIR,n/a,wordpools/wordpool_EN.txt,2,2,FLEA,n/a,FLEA,PURSE,18,"[0, 0, 0]",-999,PAL1,0,R1001P
2428.638,0.275,1352025,STUDY_ORIENT,n/a,n/a,3,5,MOON,n/a,MOON,MOUSE,18,"[0, 0, 0]",-999,PAL1,0,R1001P
2429.472,4.0,1352442,STUDY_PAIR,n/a,wordpools/wordpool_EN.txt,3,5,MOON,n/a,MOON,MOUSE,18,"[0, 0, 0]",-999,PAL1,0,R1001P
2434.506,0.275,1354959,STUDY_ORIENT,n/a,n/a,4,6,STORM,n/a,GRASS,STORM,18,"[0, 0, 0]",-999,PAL1,0,R1001P
2435.373,4.0,1355393,STUDY_PAIR,n/a,wordpools/wordpool_EN.txt,4,6,STORM,n/a,GRASS,STORM,18,"[0, 0, 0]",-999,PAL1,0,R1001P
2440.407,0.275,1357910,STUDY_ORIENT,n/a,n/a,5,1,POLE,n/a,POLE,SOUP,18,"[0, 0, 0]",-999,PAL1,0,R1001P
2441.391,4.0,1358402,STUDY_PAIR,n/a,wordpools/wordpool_EN.txt,5,1,POLE,n/a,POLE,SOUP,18,"[0, 0, 0]",-999,PAL1,0,R1001P
2446.425,0.275,1360918,STUDY_ORIENT,n/a,n/a,6,4,LOCK,n/a,TOOTH,LOCK,18,"[0, 0, 0]",-999,PAL1,0,R1001P
2447.342,4.0,1361377,STUDY_PAIR,n/a,wordpools/wordpool_EN.txt,6,4,LOCK,n/a,TOOTH,LOCK,18,"[0, 0, 0]",-999,PAL1,0,R1001P
2451.36,0.999,1363386,START,n/a,n/a,-999,-999,n/a,n/a,n/a,n/a,18,"[-999, -999, -999]",-999,PAL1,0,R1001P
2452.359,0.017,1363885,MATH_START,n/a,n/a,-999,-999,n/a,n/a,n/a,n/a,18,"[0, 0, 0]",-999,PAL1,0,R1001P
2452.376,13.003,1363894,PROB,12.973,n/a,-999,-999,n/a,n/a,n/a,n/a,18,"[7, 5, 7]",19,PAL1,0,R1001P
2465.379,15.218,1370395,PROB,15.218,n/a,-999,-999,n/a,n/a,n/a,n/a,18,"[8, 1, 4]",13,PAL1,0,R1001P
2480.597,0.018,1378004,STOP,n/a,n/a,-999,-999,n/a,n/a,n/a,n/a,18,"[-999, -999, -999]",-999,PAL1,0,R1001P
2480.615,0.0,1378013,TEST_START,n/a,n/a,-999,-999,n/a,n/a,n/a,n/a,18,"[0, 0, 0]",-999,PAL1,0,R1001P
2480.615,0.017,1378013,MATH_END,n/a,n/a,-999,-999,n/a,n/a,n/a,n/a,18,"[0, 0, 0]",-999,PAL1,0,R1001P
2480.632,0.275,1378021,TEST_ORIENT,n/a,n/a,5,1,POLE,n/a,POLE,SOUP,18,"[0, 0, 0]",-999,PAL1,0,R1001P
2481.632,4.0,1378521,TEST_PROBE,n/a,wordpools/wordpool_EN.txt,5,1,POLE,n/a,POLE,SOUP,18,"[0, 0, 0]",-999,PAL1,0,R1001P
2481.632,5.015,1378521,REC_START,n/a,n/a,5,-999,n/a,n/a,n/a,n/a,18,"[0, 0, 0]",-999,PAL1,0,R1001P
2486.647,0.002,1381028,REC_EVENT,5.015,n/a,5,1,POLE,<>,POLE,SOUP,18,"[0, 0, 0]",-999,PAL1,0,R1001P
2486.649,0.017,1381029,REC_END,n/a,n/a,5,-999,n/a,n/a,n/a,n/a,18,"[0, 0, 0]",-999,PAL1,0,R1001P
2486.666,0.275,1381038,TEST_ORIENT,n/a,n/a,2,2,FLEA,n/a,FLEA,PURSE,18,"[0, 0, 0]",-999,PAL1,0,R1001P
2487.533,4.0,1381471,TEST_PROBE,n/a,wordpools/wordpool_EN.txt,2,2,FLEA,n/a,FLEA,PURSE,18,"[0, 0, 0]",-999,PAL1,0,R1001P
2487.534,5.015,1381472,REC_START,n/a,n/a,2,-999,n/a,n/a,n/a,n/a,18,"[0, 0, 0]",-999,PAL1,0,R1001P
2492.549,0.001,1383979,REC_EVENT,5.015,n/a,2,2,FLEA,<>,FLEA,PURSE,18,"[0, 0, 0]",-999,PAL1,0,R1001P
2492.55,0.017,1383980,REC_END,n/a,n/a,2,-999,n/a,n/a,n/a,n/a,18,"[0, 0, 0]",-999,PAL1,0,R1001P
2492.567,0.275,1383988,TEST_ORIENT,n/a,n/a,1,3,GUARD,n/a,CLOUD,GUARD,18,"[0, 0, 0]",-999,PAL1,0,R1001P
2493.467,4.0,1384438,TEST_PROBE,n/a,wordpools/wordpool_EN.txt,1,3,GUARD,n/a,CLOUD,GUARD,18,"[0, 0, 0]",-999,PAL1,0,R1001P
2493.468,5.009,1384439,REC_START,n/a,n/a,1,-999,n/a,n/a,n/a,n/a,18,"[0, 0, 0]",-999,PAL1,0,R1001P
2498.477,0.0,1386943,REC_EVENT,5.009,n/a,1,3,GUARD,<>,CLOUD,GUARD,18,"[0, 0, 0]",-999,PAL1,0,R1001P
2498.477,0.008,1386943,REC_END,n/a,n/a,1,-999,n/a,n/a,n/a,n/a,18,"[0, 0, 0]",-999,PAL1,0,R1001P
2498.485,0.275,1386947,TEST_ORIENT,n/a,n/a,6,4,LOCK,n/a,TOOTH,LOCK,18,"[0, 0, 0]",-999,PAL1,0,R1001P
2499.485,4.0,1387447,TEST_PROBE,n/a,wordpools/wordpool_EN.txt,6,4,LOCK,n/a,TOOTH,LOCK,18,"[0, 0, 0]",-999,PAL1,0,R1001P
2499.486,5.003,1387448,REC_START,n/a,n/a,6,-999,n/a,n/a,n/a,n/a,18,"[0, 0, 0]",-999,PAL1,0,R1001P
2504.489,0.006,1389949,REC_EVENT,5.003,n/a,6,4,LOCK,<>,TOOTH,LOCK,18,"[0, 0, 0]",-999,PAL1,0,R1001P
2504.495,0.008,1389952,REC_END,n/a,n/a,6,-999,n/a,n/a,n/a,n/a,18,"[0, 0, 0]",-999,PAL1,0,R1001P
2504.503,0.275,1389956,TEST_ORIENT,n/a,n/a,3,5,MOON,n/a,MOON,MOUSE,18,"[0, 0, 0]",-999,PAL1,0,R1001P
2505.386,4.0,1390397,TEST_PROBE,n/a,wordpools/wordpool_EN.txt,3,5,MOON,n/a,MOON,MOUSE,18,"[0, 0, 0]",-999,PAL1,0,R1001P
2505.387,5.008,1390398,REC_START,n/a,n/a,3,-999,n/a,n/a,n/a,n/a,18,"[0, 0, 0]",-999,PAL1,0,R1001P
2510.395,0.001,1392902,REC_END,n/a,n/a,3,-999,n/a,n/a,n/a,n/a,18,"[0, 0, 0]",-999,PAL1,0,R1001P
2510.396,0.008,1392902,REC_EVENT,5.009,n/a,3,5,MOON,<>,MOON,MOUSE,18,"[0, 0, 0]",-999,PAL1,0,R1001P
2510.404,0.275,1392906,TEST_ORIENT,n/a,n/a,4,6,STORM,n/a,GRASS,STORM,18,"[0, 0, 0]",-999,PAL1,0,R1001P
2511.404,4.0,1393406,TEST_PROBE,n/a,wordpools/wordpool_EN.txt,4,6,STORM,n/a,GRASS,STORM,18,"[0, 0, 0]",-999,PAL1,0,R1001P
2511.405,5.009,1393407,REC_START,n/a,n/a,4,-999,n/a,n/a,n/a,n/a,18,"[0, 0, 0]",-999,PAL1,0,R1001P
2516.414,0.0,1395911,REC_EVENT,5.009,n/a,4,6,STORM,<>,GRASS,STORM,18,"[0, 0, 0]",-999,PAL1,0,R1001P
2516.414,1.927,1395911,REC_END,n/a,n/a,4,-999,n/a,n/a,n/a,n/a,18,"[0, 0, 0]",-999,PAL1,0,R1001P
2518.341,10.45,1396875,ENCODING_START,n/a,n/a,0,-999,n/a,n/a,n/a,n/a,19,"[0, 0, 0]",-999,PAL1,0,R1001P
2528.791,0.275,1402099,STUDY_ORIENT,n/a,n/a,1,5,BLUSH,n/a,BLUSH,STEM,19,"[0, 0, 0]",-999,PAL1,0,R1001P
2529.608,4.0,1402508,STUDY_PAIR,n/a,wordpools/wordpool_EN.txt,1,5,BLUSH,n/a,BLUSH,STEM,19,"[0, 0, 0]",-999,PAL1,0,R1001P
2534.642,0.275,1405025,STUDY_ORIENT,n/a,n/a,2,2,FROG,n/a,FROG,BRANCH,19,"[0, 0, 0]",-999,PAL1,0,R1001P
2535.542,4.0,1405475,STUDY_PAIR,n/a,wordpools/wordpool_EN.txt,2,2,FROG,n/a,FROG,BRANCH,19,"[0, 0, 0]",-999,PAL1,0,R1001P
2540.56,0.275,1407983,STUDY_ORIENT,n/a,n/a,3,3,LIP,CHIN,LIP,BOWL,19,"[0, 0, 0]",-999,PAL1,0,R1001P
2541.51,4.0,1408458,STUDY_PAIR,n/a,wordpools/wordpool_EN.txt,3,3,LIP,CHIN,LIP,BOWL,19,"[0, 0, 0]",-999,PAL1,0,R1001P
2546.544,0.275,1410975,STUDY_ORIENT,n/a,n/a,4,6,BOOK,n/a,HAND,BOOK,19,"[0, 0, 0]",-999,PAL1,0,R1001P
2547.328,4.0,1411367,STUDY_PAIR,n/a,wordpools/wordpool_EN.txt,4,6,BOOK,n/a,HAND,BOOK,19,"[0, 0, 0]",-999,PAL1,0,R1001P
2552.362,0.275,1413884,STUDY_ORIENT,n/a,n/a,5,1,LAKE,YARD,LAKE,JEEP,19,"[0, 0, 0]",-999,PAL1,0,R1001P
2553.279,4.0,1414343,STUDY_PAIR,n/a,wordpools/wordpool_EN.txt,5,1,LAKE,YARD,LAKE,JEEP,19,"[0, 0, 0]",-999,PAL1,0,R1001P
2558.313,0.275,1416859,STUDY_ORIENT,n/a,n/a,6,4,CHALK,n/a,CLAY,CHALK,19,"[0, 0, 0]",-999,PAL1,0,R1001P
2559.13,4.0,1417268,STUDY_PAIR,n/a,wordpools/wordpool_EN.txt,6,4,CHALK,n/a,CLAY,CHALK,19,"[0, 0, 0]",-999,PAL1,0,R1001P
2563.131,1.0,1419268,START,n/a,n/a,-999,-999,n/a,n/a,n/a,n/a,19,"[-999, -999, -999]",-999,PAL1,0,R1001P
2564.131,0.017,1419768,MATH_START,n/a,n/a,-999,-999,n/a,n/a,n/a,n/a,19,"[0, 0, 0]",-999,PAL1,0,R1001P
2564.148,8.251,1419777,PROB,8.225,n/a,-999,-999,n/a,n/a,n/a,n/a,19,"[3, 3, 4]",10,PAL1,0,R1001P
2572.399,8.669,1423902,PROB,8.638,n/a,-999,-999,n/a,n/a,n/a,n/a,19,"[7, 2, 3]",12,PAL1,0,R1001P
2581.068,10.769,1428236,PROB,10.769,n/a,-999,-999,n/a,n/a,n/a,n/a,19,"[5, 1, 2]",8,PAL1,0,R1001P
2591.837,0.016,1433621,STOP,n/a,n/a,-999,-999,n/a,n/a,n/a,n/a,19,"[-999, -999, -999]",-999,PAL1,0,R1001P
2591.853,0.0,1433629,MATH_END,n/a,n/a,-999,-999,n/a,n/a,n/a,n/a,19,"[0, 0, 0]",-999,PAL1,0,R1001P
2591.853,0.017,1433629,TEST_START,n/a,n/a,-999,-999,n/a,n/a,n/a,n/a,19,"[0, 0, 0]",-999,PAL1,0,R1001P
2591.87,0.275,1433637,TEST_ORIENT,n/a,n/a,5,1,LAKE,YARD,LAKE,JEEP,19,"[0, 0, 0]",-999,PAL1,0,R1001P
2592.703,4.0,1434054,TEST_PROBE,n/a,wordpools/wordpool_EN.txt,5,1,LAKE,YARD,LAKE,JEEP,19,"[0, 0, 0]",-999,PAL1,0,R1001P
2592.704,3.202,1434054,REC_START,n/a,n/a,5,-999,n/a,YARD,n/a,n/a,19,"[0, 0, 0]",-999,PAL1,0,R1001P
2595.906,1.807,1435655,REC_EVENT,3.202,n/a,5,1,LAKE,YARD,LAKE,JEEP,19,"[0, 0, 0]",-999,PAL1,0,R1001P
2597.713,0.008,1436558,REC_END,n/a,n/a,5,-999,n/a,n/a,n/a,n/a,19,"[0, 0, 0]",-999,PAL1,0,R1001P
2597.721,0.275,1436562,TEST_ORIENT,n/a,n/a,2,2,FROG,n/a,FROG,BRANCH,19,"[0, 0, 0]",-999,PAL1,0,R1001P
2598.588,0.0,1436996,REC_START,n/a,n/a,2,-999,n/a,n/a,n/a,n/a,19,"[0, 0, 0]",-999,PAL1,0,R1001P
2598.588,4.0,1436996,TEST_PROBE,n/a,wordpools/wordpool_EN.txt,2,2,FROG,n/a,FROG,BRANCH,19,"[0, 0, 0]",-999,PAL1,0,R1001P
2603.609,0.005,1439506,REC_EVENT,5.021,n/a,2,2,FROG,<>,FROG,BRANCH,19,"[0, 0, 0]",-999,PAL1,0,R1001P
2603.614,0.008,1439509,REC_END,n/a,n/a,2,-999,n/a,n/a,n/a,n/a,19,"[0, 0, 0]",-999,PAL1,0,R1001P
2603.622,0.275,1439513,TEST_ORIENT,n/a,n/a,3,3,LIP,CHIN,LIP,BOWL,19,"[0, 0, 0]",-999,PAL1,0,R1001P
2604.606,4.0,1440005,TEST_PROBE,n/a,wordpools/wordpool_EN.txt,3,3,LIP,CHIN,LIP,BOWL,19,"[0, 0, 0]",-999,PAL1,0,R1001P
2604.606,1.728,1440005,REC_START,n/a,n/a,3,-999,n/a,CHIN,n/a,n/a,19,"[0, 0, 0]",-999,PAL1,0,R1001P
2606.334,3.289,1440869,REC_EVENT,1.728,n/a,3,3,LIP,CHIN,LIP,BOWL,19,"[0, 0, 0]",-999,PAL1,0,R1001P
2609.623,0.017,1442513,REC_END,n/a,n/a,3,-999,n/a,n/a,n/a,n/a,19,"[0, 0, 0]",-999,PAL1,0,R1001P
