 onset,duration,sample,trial_type,response_time,stim_file,serialpos,probepos,probe_word,resp_word,study_1,study_2,list,test,answer,experiment,session,subject
0.0,59.458,141778,SESS_START,n/a,n/a,-999,-999,n/a,n/a,n/a,n/a,-999,"[0, 0, 0]",-999,PAL1,0,R1002P
59.458,1.017,171505,START,n/a,n/a,-999,-999,n/a,n/a,n/a,n/a,-1,"[-999, -999, -999]",-999,PAL1,0,R1002P
60.475,5.651,172013,PROB,5.624,n/a,-999,-999,n/a,n/a,n/a,n/a,-1,"[9, 5, 4]",18,PAL1,0,R1002P
66.126,3.868,174839,PROB,3.837,n/a,-999,-999,n/a,n/a,n/a,n/a,-1,"[2, 2, 9]",13,PAL1,0,R1002P
69.994,3.5,176773,PROB,3.481,n/a,-999,-999,n/a,n/a,n/a,n/a,-1,"[2, 5, 6]",13,PAL1,0,R1002P
73.494,2.534,178523,PROB,2.501,n/a,-999,-999,n/a,n/a,n/a,n/a,-1,"[7, 1, 9]",17,PAL1,0,R1002P
76.028,3.001,179790,PROB,2.975,n/a,-999,-999,n/a,n/a,n/a,n/a,-1,"[1, 7, 3]",11,PAL1,0,R1002P
79.029,3.797,181290,PROB,3.797,n/a,-999,-999,n/a,n/a,n/a,n/a,-1,"[3, 2, 9]",14,PAL1,0,R1002P
82.826,70.369,183188,STOP,n/a,n/a,-999,-999,n/a,n/a,n/a,n/a,-1,"[-999, -999, -999]",-999,PAL1,0,R1002P
153.195,10.45,218371,ENCODING_START,n/a,n/a,0,-999,n/a,n/a,n/a,n/a,1,"[0, 0, 0]",-999,PAL1,0,R1002P
163.645,0.275,223596,STUDY_ORIENT,n/a,n/a,1,3,TOOTH,n/a,TOOTH,VAN,1,"[0, 0, 0]",-999,PAL1,0,R1002P
164.661,4.0,224104,STUDY_PAIR,n/a,wordpools/wordpool_EN.txt,1,3,TOOTH,n/a,TOOTH,VAN,1,"[0, 0, 0]",-999,PAL1,0,R1002P
169.695,0.275,226621,STUDY_ORIENT,n/a,n/a,2,6,BOOT,TRUCK,TRUCK,BOOT,1,"[0, 0, 0]",-999,PAL1,0,R1002P
170.58,4.0,227063,STUDY_PAIR,n/a,wordpools/wordpool_EN.txt,2,6,BOOT,TRUCK,TRUCK,BOOT,1,"[0, 0, 0]",-999,PAL1,0,R1002P
175.614,0.275,229580,STUDY_ORIENT,n/a,n/a,3,5,MUG,PLUG,SPARK,MUG,1,"[0, 0, 0]",-999,PAL1,0,R1002P
176.631,4.0,230088,STUDY_PAIR,n/a,wordpools/wordpool_EN.txt,3,5,MUG,PLUG,SPARK,MUG,1,"[0, 0, 0]",-999,PAL1,0,R1002P
181.664,0.275,232605,STUDY_ORIENT,n/a,n/a,4,2,JAIL,ZOO,ZOO,JAIL,1,"[0, 0, 0]",-999,PAL1,0,R1002P
182.565,4.0,233055,STUDY_PAIR,n/a,wordpools/wordpool_EN.txt,4,2,JAIL,ZOO,ZOO,JAIL,1,"[0, 0, 0]",-999,PAL1,0,R1002P
187.583,0.275,235564,STUDY_ORIENT,n/a,n/a,5,1,COUCH,MOLE,COUCH,MOLE,1,"[0, 0, 0]",-999,PAL1,0,R1002P
188.483,4.0,236014,STUDY_PAIR,n/a,wordpools/wordpool_EN.txt,5,1,COUCH,MOLE,COUCH,MOLE,1,"[0, 0, 0]",-999,PAL1,0,R1002P
193.501,0.275,238523,STUDY_ORIENT,n/a,n/a,6,4,SPONGE,TEA,TEA,SPONGE,1,"[0, 0, 0]",-999,PAL1,0,R1002P
194.501,4.0,239023,STUDY_PAIR,n/a,wordpools/wordpool_EN.txt,6,4,SPONGE,TEA,TEA,SPONGE,1,"[0, 0, 0]",-999,PAL1,0,R1002P
198.519,0.999,241032,START,n/a,n/a,-999,-999,n/a,n/a,n/a,n/a,1,"[-999, -999, -999]",-999,PAL1,0,R1002P
199.518,0.017,241531,MATH_START,n/a,n/a,-999,-999,n/a,n/a,n/a,n/a,1,"[0, 0, 0]",-999,PAL1,0,R1002P
199.535,4.768,241540,PROB,4.74,n/a,-999,-999,n/a,n/a,n/a,n/a,1,"[5, 9, 5]",19,PAL1,0,R1002P
204.303,3.0,243924,PROB,2.972,n/a,-999,-999,n/a,n/a,n/a,n/a,1,"[7, 2, 7]",16,PAL1,0,R1002P
207.303,2.918,245424,PROB,2.884,n/a,-999,-999,n/a,n/a,n/a,n/a,1,"[6, 6, 3]",15,PAL1,0,R1002P
210.221,2.583,246882,PROB,2.549,n/a,-999,-999,n/a,n/a,n/a,n/a,1,"[7, 3, 4]",14,PAL1,0,R1002P
212.804,4.185,248174,PROB,4.159,n/a,-999,-999,n/a,n/a,n/a,n/a,1,"[3, 6, 3]",2,PAL1,0,R1002P
216.989,2.821,250266,PROB,2.821,n/a,-999,-999,n/a,n/a,n/a,n/a,1,"[4, 1, 6]",11,PAL1,0,R1002P
219.81,0.012,251677,STOP,n/a,n/a,-999,-999,n/a,n/a,n/a,n/a,1,"[-999, -999, -999]",-999,PAL1,0,R1002P
219.822,0.0,251683,MATH_END,n/a,n/a,-999,-999,n/a,n/a,n/a,n/a,1,"[0, 0, 0]",-999,PAL1,0,R1002P
219.822,0.016,251683,TEST_START,n/a,n/a,-999,-999,n/a,n/a,n/a,n/a,1,"[0, 0, 0]",-999,PAL1,0,R1002P
219.838,0.275,251691,TEST_ORIENT,n/a,n/a,5,1,COUCH,MOLE,COUCH,MOLE,1,"[0, 0, 0]",-999,PAL1,0,R1002P
220.855,4.0,252199,TEST_PROBE,n/a,wordpools/wordpool_EN.txt,5,1,COUCH,MOLE,COUCH,MOLE,1,"[0, 0, 0]",-999,PAL1,0,R1002P
220.855,2.019,252199,REC_START,n/a,n/a,5,-999,n/a,MOLE,n/a,n/a,1,"[0, 0, 0]",-999,PAL1,0,R1002P
222.874,2.998,253209,REC_EVENT,2.019,n/a,5,1,COUCH,MOLE,COUCH,MOLE,1,"[0, 0, 0]",-999,PAL1,0,R1002P
225.872,0.018,254708,REC_END,n/a,n/a,5,-999,n/a,n/a,n/a,n/a,1,"[0, 0, 0]",-999,PAL1,0,R1002P
225.89,0.275,254717,TEST_ORIENT,n/a,n/a,4,2,JAIL,ZOO,ZOO,JAIL,1,"[0, 0, 0]",-999,PAL1,0,R1002P
226.79,4.0,255166,TEST_PROBE,n/a,wordpools/wordpool_EN.txt,4,2,JAIL,ZOO,ZOO,JAIL,1,"[0, 0, 0]",-999,PAL1,0,R1002P
226.791,1.121,255167,REC_START,n/a,n/a,4,-999,n/a,ZOO,n/a,n/a,1,"[0, 0, 0]",-999,PAL1,0,R1002P
227.912,3.903,255727,REC_EVENT,1.121,n/a,4,2,JAIL,ZOO,ZOO,JAIL,1,"[0, 0, 0]",-999,PAL1,0,R1002P
231.815,0.009,257679,REC_END,n/a,n/a,4,-999,n/a,n/a,n/a,n/a,1,"[0, 0, 0]",-999,PAL1,0,R1002P
231.824,0.275,257683,TEST_ORIENT,n/a,n/a,1,3,TOOTH,n/a,TOOTH,VAN,1,"[0, 0, 0]",-999,PAL1,0,R1002P
232.69,4.0,258116,TEST_PROBE,n/a,wordpools/wordpool_EN.txt,1,3,TOOTH,n/a,TOOTH,VAN,1,"[0, 0, 0]",-999,PAL1,0,R1002P
232.691,4.998,258117,REC_START,n/a,n/a,1,-999,n/a,n/a,n/a,n/a,1,"[0, 0, 0]",-999,PAL1,0,R1002P
237.689,0.002,260616,REC_EVENT,4.998,n/a,1,3,TOOTH,<>,TOOTH,VAN,1,"[0, 0, 0]",-999,PAL1,0,R1002P
237.691,0.017,260617,REC_END,n/a,n/a,1,-999,n/a,n/a,n/a,n/a,1,"[0, 0, 0]",-999,PAL1,0,R1002P
237.708,0.275,260625,TEST_ORIENT,n/a,n/a,6,4,SPONGE,TEA,TEA,SPONGE,1,"[0, 0, 0]",-999,PAL1,0,R1002P
238.509,4.0,261026,TEST_PROBE,n/a,wordpools/wordpool_EN.txt,6,4,SPONGE,TEA,TEA,SPONGE,1,"[0, 0, 0]",-999,PAL1,0,R1002P
238.51,1.116,261026,REC_START,n/a,n/a,6,-999,n/a,TEA,n/a,n/a,1,"[0, 0, 0]",-999,PAL1,0,R1002P
239.626,3.892,261584,REC_EVENT,1.116,n/a,6,4,SPONGE,TEA,TEA,SPONGE,1,"[0, 0, 0]",-999,PAL1,0,R1002P
243.518,0.009,263530,REC_END,n/a,n/a,6,-999,n/a,n/a,n/a,n/a,1,"[0, 0, 0]",-999,PAL1,0,R1002P
243.527,0.275,263535,TEST_ORIENT,n/a,n/a,3,5,MUG,PLUG,SPARK,MUG,1,"[0, 0, 0]",-999,PAL1,0,R1002P
244.477,4.0,264010,TEST_PROBE,n/a,wordpools/wordpool_EN.txt,3,5,MUG,PLUG,SPARK,MUG,1,"[0, 0, 0]",-999,PAL1,0,R1002P
244.478,4.136,264010,REC_START,n/a,n/a,3,-999,n/a,PLUG,n/a,n/a,1,"[0, 0, 0]",-999,PAL1,0,R1002P
248.614,0.872,266078,REC_EVENT,4.136,n/a,3,5,MUG,PLUG,SPARK,MUG,1,"[0, 0, 0]",-999,PAL1,0,R1002P
249.486,0.009,266514,REC_END,n/a,n/a,3,-999,n/a,n/a,n/a,n/a,1,"[0, 0, 0]",-999,PAL1,0,R1002P
249.495,0.275,266518,TEST_ORIENT,n/a,n/a,2,6,BOOT,TRUCK,TRUCK,BOOT,1,"[0, 0, 0]",-999,PAL1,0,R1002P
250.328,4.0,266935,TEST_PROBE,n/a,wordpools/wordpool_EN.txt,2,6,BOOT,TRUCK,TRUCK,BOOT,1,"[0, 0, 0]",-999,PAL1,0,R1002P
250.329,1.808,266935,REC_START,n/a,n/a,2,-999,n/a,TRUCK,n/a,n/a,1,"[0, 0, 0]",-999,PAL1,0,R1002P
252.137,3.201,267839,REC_EVENT,1.808,n/a,2,6,BOOT,TRUCK,TRUCK,BOOT,1,"[0, 0, 0]",-999,PAL1,0,R1002P
255.338,3.665,269440,REC_END,n/a,n/a,2,-999,n/a,n/a,n/a,n/a,1,"[0, 0, 0]",-999,PAL1,0,R1002P
259.003,10.446,271272,ENCODING_START,n/a,n/a,0,-999,n/a,n/a,n/a,n/a,2,"[0, 0, 0]",-999,PAL1,0,R1002P
269.449,0.275,276495,STUDY_ORIENT,n/a,n/a,1,1,DOLL,n/a,FOG,DOLL,2,"[0, 0, 0]",-999,PAL1,0,R1002P
270.416,4.0,276978,STUDY_PAIR,n/a,wordpools/wordpool_EN.txt,1,1,DOLL,n/a,FOG,DOLL,2,"[0, 0, 0]",-999,PAL1,0,R1002P
275.45,0.275,279495,STUDY_ORIENT,n/a,n/a,2,4,GEESE,HEN,GEESE,HEN,2,"[0, 0, 0]",-999,PAL1,0,R1002P
276.433,4.0,279987,STUDY_PAIR,n/a,wordpools/wordpool_EN.txt,2,4,GEESE,HEN,GEESE,HEN,2,"[0, 0, 0]",-999,PAL1,0,R1002P
281.451,0.275,282496,STUDY_ORIENT,n/a,n/a,3,5,CAVE,MAP,MAP,CAVE,2,"[0, 0, 0]",-999,PAL1,0,R1002P
282.451,4.0,282995,STUDY_PAIR,n/a,wordpools/wordpool_EN.txt,3,5,CAVE,MAP,MAP,CAVE,2,"[0, 0, 0]",-999,PAL1,0,R1002P
287.469,0.275,285504,STUDY_ORIENT,n/a,n/a,4,6,TREE,GRASS,TREE,GRASS,2,"[0, 0, 0]",-999,PAL1,0,R1002P
288.286,4.0,285913,STUDY_PAIR,n/a,wordpools/wordpool_EN.txt,4,6,TREE,GRASS,TREE,GRASS,2,"[0, 0, 0]",-999,PAL1,0,R1002P
293.32,0.275,288430,STUDY_ORIENT,n/a,n/a,5,3,BRUSH,n/a,PEACH,BRUSH,2,"[0, 0, 0]",-999,PAL1,0,R1002P
294.22,4.0,288880,STUDY_PAIR,n/a,wordpools/wordpool_EN.txt,5,3,BRUSH,n/a,PEACH,BRUSH,2,"[0, 0, 0]",-999,PAL1,0,R1002P
299.238,0.275,291389,STUDY_ORIENT,n/a,n/a,6,2,STRING,n/a,STRING,SALT,2,"[0, 0, 0]",-999,PAL1,0,R1002P
300.038,4.0,291789,STUDY_PAIR,n/a,wordpools/wordpool_EN.txt,6,2,STRING,n/a,STRING,SALT,2,"[0, 0, 0]",-999,PAL1,0,R1002P
304.056,0.999,293797,START,n/a,n/a,-999,-999,n/a,n/a,n/a,n/a,2,"[-999, -999, -999]",-999,PAL1,0,R1002P
305.055,0.017,294297,MATH_START,n/a,n/a,-999,-999,n/a,n/a,n/a,n/a,2,"[0, 0, 0]",-999,PAL1,0,R1002P
305.072,3.918,294305,PROB,3.883,n/a,-999,-999,n/a,n/a,n/a,n/a,2,"[5, 6, 2]",13,PAL1,0,R1002P
308.99,3.1,296264,PROB,3.069,n/a,-999,-999,n/a,n/a,n/a,n/a,2,"[2, 6, 6]",14,PAL1,0,R1002P
312.09,4.468,297814,PROB,4.441,n/a,-999,-999,n/a,n/a,n/a,n/a,2,"[5, 9, 4]",18,PAL1,0,R1002P
316.558,5.434,300048,PROB,5.405,n/a,-999,-999,n/a,n/a,n/a,n/a,2,"[7, 8, 6]",21,PAL1,0,R1002P
321.992,3.995,302765,PROB,3.995,n/a,-999,-999,n/a,n/a,n/a,n/a,2,"[7, 5, 2]",14,PAL1,0,R1002P
325.987,0.006,304762,STOP,n/a,n/a,-999,-999,n/a,n/a,n/a,n/a,2,"[-999, -999, -999]",-999,PAL1,0,R1002P
325.993,0.0,304765,TEST_START,n/a,n/a,-999,-999,n/a,n/a,n/a,n/a,2,"[0, 0, 0]",-999,PAL1,0,R1002P
325.993,0.017,304765,MATH_END,n/a,n/a,-999,-999,n/a,n/a,n/a,n/a,2,"[0, 0, 0]",-999,PAL1,0,R1002P
326.01,0.275,304774,TEST_ORIENT,n/a,n/a,1,1,DOLL,n/a,FOG,DOLL,2,"[0, 0, 0]",-999,PAL1,0,R1002P
326.826,4.0,305182,TEST_PROBE,n/a,wordpools/wordpool_EN.txt,1,1,DOLL,n/a,FOG,DOLL,2,"[0, 0, 0]",-999,PAL1,0,R1002P
326.826,5.015,305182,REC_START,n/a,n/a,1,-999,n/a,n/a,n/a,n/a,2,"[0, 0, 0]",-999,PAL1,0,R1002P
331.841,0.002,307689,REC_EVENT,5.015,n/a,1,1,DOLL,<>,FOG,DOLL,2,"[0, 0, 0]",-999,PAL1,0,R1002P
331.843,0.017,307690,REC_END,n/a,n/a,1,-999,n/a,n/a,n/a,n/a,2,"[0, 0, 0]",-999,PAL1,0,R1002P
331.86,0.275,307699,TEST_ORIENT,n/a,n/a,6,2,STRING,n/a,STRING,SALT,2,"[0, 0, 0]",-999,PAL1,0,R1002P
332.677,0.0,308107,REC_START,n/a,n/a,6,-999,n/a,n/a,n/a,n/a,2,"[0, 0, 0]",-999,PAL1,0,R1002P
332.677,4.0,308107,TEST_PROBE,n/a,wordpools/wordpool_EN.txt,6,2,STRING,n/a,STRING,SALT,2,"[0, 0, 0]",-999,PAL1,0,R1002P
337.692,0.002,310614,REC_EVENT,5.015,n/a,6,2,STRING,<>,STRING,SALT,2,"[0, 0, 0]",-999,PAL1,0,R1002P
337.694,0.017,310615,REC_END,n/a,n/a,6,-999,n/a,n/a,n/a,n/a,2,"[0, 0, 0]",-999,PAL1,0,R1002P
337.711,0.275,310624,TEST_ORIENT,n/a,n/a,5,3,BRUSH,n/a,PEACH,BRUSH,2,"[0, 0, 0]",-999,PAL1,0,R1002P
338.595,4.0,311066,TEST_PROBE,n/a,wordpools/wordpool_EN.txt,5,3,BRUSH,n/a,PEACH,BRUSH,2,"[0, 0, 0]",-999,PAL1,0,R1002P
338.596,5.008,311066,REC_START,n/a,n/a,5,-999,n/a,n/a,n/a,n/a,2,"[0, 0, 0]",-999,PAL1,0,R1002P
343.604,0.001,313570,REC_END,n/a,n/a,5,-999,n/a,n/a,n/a,n/a,2,"[0, 0, 0]",-999,PAL1,0,R1002P
343.605,0.008,313571,REC_EVENT,5.009,n/a,5,3,BRUSH,<>,PEACH,BRUSH,2,"[0, 0, 0]",-999,PAL1,0,R1002P
343.613,0.275,313575,TEST_ORIENT,n/a,n/a,2,4,GEESE,HEN,GEESE,HEN,2,"[0, 0, 0]",-999,PAL1,0,R1002P
344.63,4.0,314083,TEST_PROBE,n/a,wordpools/wordpool_EN.txt,2,4,GEESE,HEN,GEESE,HEN,2,"[0, 0, 0]",-999,PAL1,0,R1002P
344.631,1.033,314084,REC_START,n/a,n/a,2,-999,n/a,HEN,n/a,n/a,2,"[0, 0, 0]",-999,PAL1,0,R1002P
345.664,3.983,314600,REC_EVENT,1.033,n/a,2,4,GEESE,HEN,GEESE,HEN,2,"[0, 0, 0]",-999,PAL1,0,R1002P
349.647,0.016,316592,REC_END,n/a,n/a,2,-999,n/a,n/a,n/a,n/a,2,"[0, 0, 0]",-999,PAL1,0,R1002P
349.663,0.275,316600,TEST_ORIENT,n/a,n/a,3,5,CAVE,MAP,MAP,CAVE,2,"[0, 0, 0]",-999,PAL1,0,R1002P
350.564,4.0,317050,TEST_PROBE,n/a,wordpools/wordpool_EN.txt,3,5,CAVE,MAP,MAP,CAVE,2,"[0, 0, 0]",-999,PAL1,0,R1002P
350.565,0.953,317051,REC_START,n/a,n/a,3,-999,n/a,MAP,n/a,n/a,2,"[0, 0, 0]",-999,PAL1,0,R1002P
351.518,4.056,317527,REC_EVENT,0.953,n/a,3,5,CAVE,MAP,MAP,CAVE,2,"[0, 0, 0]",-999,PAL1,0,R1002P
355.574,0.008,319555,REC_END,n/a,n/a,3,-999,n/a,n/a,n/a,n/a,2,"[0, 0, 0]",-999,PAL1,0,R1002P
355.582,0.275,319559,TEST_ORIENT,n/a,n/a,4,6,TREE,GRASS,TREE,GRASS,2,"[0, 0, 0]",-999,PAL1,0,R1002P
356.616,0.0,320076,REC_START,n/a,n/a,4,-999,n/a,GRASS,n/a,n/a,2,"[0, 0, 0]",-999,PAL1,0,R1002P
356.616,4.0,320076,TEST_PROBE,n/a,wordpools/wordpool_EN.txt,4,6,TREE,GRASS,TREE,GRASS,2,"[0, 0, 0]",-999,PAL1,0,R1002P
358.014,3.619,320775,REC_EVENT,1.398,n/a,4,6,TREE,GRASS,TREE,GRASS,2,"[0, 0, 0]",-999,PAL1,0,R1002P
361.633,3.153,322584,REC_END,n/a,n/a,4,-999,n/a,n/a,n/a,n/a,2,"[0, 0, 0]",-999,PAL1,0,R1002P
364.786,10.45,324161,ENCODING_START,n/a,n/a,0,-999,n/a,n/a,n/a,n/a,3,"[0, 0, 0]",-999,PAL1,0,R1002P
375.236,0.275,329385,STUDY_ORIENT,n/a,n/a,1,5,PIN,PEN,PIN,PEN,3,"[0, 0, 0]",-999,PAL1,0,R1002P
376.186,4.0,329860,STUDY_PAIR,n/a,wordpools/wordpool_EN.txt,1,5,PIN,PEN,PIN,PEN,3,"[0, 0, 0]",-999,PAL1,0,R1002P
381.22,0.275,332377,STUDY_ORIENT,n/a,n/a,2,6,ARK,VASE,ARK,VASE,3,"[0, 0, 0]",-999,PAL1,0,R1002P
382.187,4.0,332861,STUDY_PAIR,n/a,wordpools/wordpool_EN.txt,2,6,ARK,VASE,ARK,VASE,3,"[0, 0, 0]",-999,PAL1,0,R1002P
387.205,0.275,335370,STUDY_ORIENT,n/a,n/a,3,1,STORE,GOLD,STORE,GOLD,3,"[0, 0, 0]",-999,PAL1,0,R1002P
388.038,4.0,335786,STUDY_PAIR,n/a,wordpools/wordpool_EN.txt,3,1,STORE,GOLD,STORE,GOLD,3,"[0, 0, 0]",-999,PAL1,0,R1002P
393.056,0.275,338295,STUDY_ORIENT,n/a,n/a,4,2,FILM,DOG,FILM,DOG,3,"[0, 0, 0]",-999,PAL1,0,R1002P
394.056,4.0,338795,STUDY_PAIR,n/a,wordpools/wordpool_EN.txt,4,2,FILM,DOG,FILM,DOG,3,"[0, 0, 0]",-999,PAL1,0,R1002P
399.074,0.275,341304,STUDY_ORIENT,n/a,n/a,5,3,WHALE,WALL,WHALE,WALL,3,"[0, 0, 0]",-999,PAL1,0,R1002P
399.957,4.0,341745,STUDY_PAIR,n/a,wordpools/wordpool_EN.txt,5,3,WHALE,WALL,WHALE,WALL,3,"[0, 0, 0]",-999,PAL1,0,R1002P
404.975,0.275,344254,STUDY_ORIENT,n/a,n/a,6,4,CLAY,CUBE,CLAY,CUBE,3,"[0, 0, 0]",-999,PAL1,0,R1002P
405.824,4.0,344679,STUDY_PAIR,n/a,wordpools/wordpool_EN.txt,6,4,CLAY,CUBE,CLAY,CUBE,3,"[0, 0, 0]",-999,PAL1,0,R1002P
409.842,0.999,346688,START,n/a,n/a,-999,-999,n/a,n/a,n/a,n/a,3,"[-999, -999, -999]",-999,PAL1,0,R1002P
410.841,0.017,347187,MATH_START,n/a,n/a,-999,-999,n/a,n/a,n/a,n/a,3,"[0, 0, 0]",-999,PAL1,0,R1002P
410.858,4.968,347196,PROB,4.944,n/a,-999,-999,n/a,n/a,n/a,n/a,3,"[3, 2, 6]",11,PAL1,0,R1002P
415.826,3.268,349679,PROB,3.249,n/a,-999,-999,n/a,n/a,n/a,n/a,3,"[8, 1, 8]",17,PAL1,0,R1002P
419.094,2.951,351313,PROB,2.917,n/a,-999,-999,n/a,n/a,n/a,n/a,3,"[6, 3, 2]",11,PAL1,0,R1002P
422.045,3.234,352789,PROB,3.206,n/a,-999,-999,n/a,n/a,n/a,n/a,3,"[6, 2, 9]",17,PAL1,0,R1002P
425.279,2.784,354406,PROB,2.756,n/a,-999,-999,n/a,n/a,n/a,n/a,3,"[6, 5, 1]",12,PAL1,0,R1002P
428.063,3.068,355798,PROB,3.068,n/a,-999,-999,n/a,n/a,n/a,n/a,3,"[3, 2, 7]",12,PAL1,0,R1002P
431.131,0.016,357331,STOP,n/a,n/a,-999,-999,n/a,n/a,n/a,n/a,3,"[-999, -999, -999]",-999,PAL1,0,R1002P
431.147,0.0,357339,TEST_START,n/a,n/a,-999,-999,n/a,n/a,n/a,n/a,3,"[0, 0, 0]",-999,PAL1,0,R1002P
431.147,0.016,357339,MATH_END,n/a,n/a,-999,-999,n/a,n/a,n/a,n/a,3,"[0, 0, 0]",-999,PAL1,0,R1002P
431.163,0.275,357347,TEST_ORIENT,n/a,n/a,3,1,STORE,GOLD,STORE,GOLD,3,"[0, 0, 0]",-999,PAL1,0,R1002P
432.197,4.0,357864,TEST_PROBE,n/a,wordpools/wordpool_EN.txt,3,1,STORE,GOLD,STORE,GOLD,3,"[0, 0, 0]",-999,PAL1,0,R1002P
432.197,1.121,357864,REC_START,n/a,n/a,3,-999,n/a,GOLD,n/a,n/a,3,"[0, 0, 0]",-999,PAL1,0,R1002P
433.318,3.896,358425,REC_EVENT,1.121,n/a,3,1,STORE,GOLD,STORE,GOLD,3,"[0, 0, 0]",-999,PAL1,0,R1002P
437.214,0.017,360373,REC_END,n/a,n/a,3,-999,n/a,n/a,n/a,n/a,3,"[0, 0, 0]",-999,PAL1,0,R1002P
437.231,0.275,360381,TEST_ORIENT,n/a,n/a,4,2,FILM,DOG,FILM,DOG,3,"[0, 0, 0]",-999,PAL1,0,R1002P
438.231,4.0,360881,TEST_PROBE,n/a,wordpools/wordpool_EN.txt,4,2,FILM,DOG,FILM,DOG,3,"[0, 0, 0]",-999,PAL1,0,R1002P
438.232,0.996,360882,REC_START,n/a,n/a,4,-999,n/a,DOG,n/a,n/a,3,"[0, 0, 0]",-999,PAL1,0,R1002P
439.228,4.012,361380,REC_EVENT,0.996,n/a,4,2,FILM,DOG,FILM,DOG,3,"[0, 0, 0]",-999,PAL1,0,R1002P
443.24,0.009,363386,REC_END,n/a,n/a,4,-999,n/a,n/a,n/a,n/a,3,"[0, 0, 0]",-999,PAL1,0,R1002P
443.249,0.275,363390,TEST_ORIENT,n/a,n/a,5,3,WHALE,WALL,WHALE,WALL,3,"[0, 0, 0]",-999,PAL1,0,R1002P
444.149,4.0,363840,TEST_PROBE,n/a,wordpools/wordpool_EN.txt,5,3,WHALE,WALL,WHALE,WALL,3,"[0, 0, 0]",-999,PAL1,0,R1002P
444.149,1.134,363840,REC_START,n/a,n/a,5,-999,n/a,WALL,n/a,n/a,3,"[0, 0, 0]",-999,PAL1,0,R1002P
445.283,3.884,364407,REC_EVENT,1.134,n/a,5,3,WHALE,WALL,WHALE,WALL,3,"[0, 0, 0]",-999,PAL1,0,R1002P
449.167,0.016,366349,REC_END,n/a,n/a,5,-999,n/a,n/a,n/a,n/a,3,"[0, 0, 0]",-999,PAL1,0,R1002P
449.183,0.275,366357,TEST_ORIENT,n/a,n/a,6,4,CLAY,CUBE,CLAY,CUBE,3,"[0, 0, 0]",-999,PAL1,0,R1002P
450.184,0.0,366857,REC_START,n/a,n/a,6,-999,n/a,CUBE,n/a,n/a,3,"[0, 0, 0]",-999,PAL1,0,R1002P
450.184,4.0,366857,TEST_PROBE,n/a,wordpools/wordpool_EN.txt,6,4,CLAY,CUBE,CLAY,CUBE,3,"[0, 0, 0]",-999,PAL1,0,R1002P
451.324,3.877,367427,REC_EVENT,1.14,n/a,6,4,CLAY,CUBE,CLAY,CUBE,3,"[0, 0, 0]",-999,PAL1,0,R1002P
455.201,0.017,369366,REC_END,n/a,n/a,6,-999,n/a,n/a,n/a,n/a,3,"[0, 0, 0]",-999,PAL1,0,R1002P
455.218,0.275,369374,TEST_ORIENT,n/a,n/a,1,5,PIN,PEN,PIN,PEN,3,"[0, 0, 0]",-999,PAL1,0,R1002P
456.051,4.0,369791,TEST_PROBE,n/a,wordpools/wordpool_EN.txt,1,5,PIN,PEN,PIN,PEN,3,"[0, 0, 0]",-999,PAL1,0,R1002P
456.052,1.318,369791,REC_START,n/a,n/a,1,-999,n/a,PEN,n/a,n/a,3,"[0, 0, 0]",-999,PAL1,0,R1002P
457.37,3.691,370450,REC_EVENT,1.318,n/a,1,5,PIN,PEN,PIN,PEN,3,"[0, 0, 0]",-999,PAL1,0,R1002P
461.061,0.008,372296,REC_END,n/a,n/a,1,-999,n/a,n/a,n/a,n/a,3,"[0, 0, 0]",-999,PAL1,0,R1002P
461.069,0.275,372300,TEST_ORIENT,n/a,n/a,2,6,ARK,VASE,ARK,VASE,3,"[0, 0, 0]",-999,PAL1,0,R1002P
462.019,4.0,372775,TEST_PROBE,n/a,wordpools/wordpool_EN.txt,2,6,ARK,VASE,ARK,VASE,3,"[0, 0, 0]",-999,PAL1,0,R1002P
462.02,1.437,372775,REC_START,n/a,n/a,2,-999,n/a,VASE,n/a,n/a,3,"[0, 0, 0]",-999,PAL1,0,R1002P
463.457,3.573,373494,REC_EVENT,1.437,n/a,2,6,ARK,VASE,ARK,VASE,3,"[0, 0, 0]",-999,PAL1,0,R1002P
467.03,2.085,375280,REC_END,n/a,n/a,2,-999,n/a,n/a,n/a,n/a,3,"[0, 0, 0]",-999,PAL1,0,R1002P
469.115,10.441,376322,ENCODING_START,n/a,n/a,0,-999,n/a,n/a,n/a,n/a,4,"[0, 0, 0]",-999,PAL1,0,R1002P
479.556,0.275,381543,STUDY_ORIENT,n/a,n/a,1,3,BOOK,FOOD,BOOK,FOOD,4,"[0, 0, 0]",-999,PAL1,0,R1002P
480.406,4.0,381968,STUDY_PAIR,n/a,wordpools/wordpool_EN.txt,1,3,BOOK,FOOD,BOOK,FOOD,4,"[0, 0, 0]",-999,PAL1,0,R1002P
485.424,0.275,384477,STUDY_ORIENT,n/a,n/a,2,4,DRESS,APE,DRESS,APE,4,"[0, 0, 0]",-999,PAL1,0,R1002P
486.224,4.0,384876,STUDY_PAIR,n/a,wordpools/wordpool_EN.txt,2,4,DRESS,APE,DRESS,APE,4,"[0, 0, 0]",-999,PAL1,0,R1002P
491.258,0.275,387393,STUDY_ORIENT,n/a,n/a,3,5,PEAR,MOUTH,MOUTH,PEAR,4,"[0, 0, 0]",-999,PAL1,0,R1002P
492.192,4.0,387860,STUDY_PAIR,n/a,wordpools/wordpool_EN.txt,3,5,PEAR,MOUTH,MOUTH,PEAR,4,"[0, 0, 0]",-999,PAL1,0,R1002P
497.226,0.275,390377,STUDY_ORIENT,n/a,n/a,4,6,LEG,BADGE,LEG,BADGE,4,"[0, 0, 0]",-999,PAL1,0,R1002P
498.126,4.0,390827,STUDY_PAIR,n/a,wordpools/wordpool_EN.txt,4,6,LEG,BADGE,LEG,BADGE,4,"[0, 0, 0]",-999,PAL1,0,R1002P
503.144,0.275,393336,STUDY_ORIENT,n/a,n/a,5,1,RIB,ICE,ICE,RIB,4,"[0, 0, 0]",-999,PAL1,0,R1002P
504.094,4.0,393811,STUDY_PAIR,n/a,wordpools/wordpool_EN.txt,5,1,RIB,ICE,ICE,RIB,4,"[0, 0, 0]",-999,PAL1,0,R1002P
509.128,0.275,396328,STUDY_ORIENT,n/a,n/a,6,2,NOSE,BENCH,BENCH,NOSE,4,"[0, 0, 0]",-999,PAL1,0,R1002P
510.079,4.0,396803,STUDY_PAIR,n/a,wordpools/wordpool_EN.txt,6,2,NOSE,BENCH,BENCH,NOSE,4,"[0, 0, 0]",-999,PAL1,0,R1002P
514.096,1.0,398812,START,n/a,n/a,-999,-999,n/a,n/a,n/a,n/a,4,"[-999, -999, -999]",-999,PAL1,0,R1002P
515.096,0.017,399312,MATH_START,n/a,n/a,-999,-999,n/a,n/a,n/a,n/a,4,"[0, 0, 0]",-999,PAL1,0,R1002P
515.113,6.034,399320,PROB,6.002,n/a,-999,-999,n/a,n/a,n/a,n/a,4,"[5, 7, 8]",20,PAL1,0,R1002P
521.147,3.118,402337,PROB,3.088,n/a,-999,-999,n/a,n/a,n/a,n/a,4,"[8, 2, 7]",17,PAL1,0,R1002P
524.265,4.0,403896,PROB,3.97,n/a,-999,-999,n/a,n/a,n/a,n/a,4,"[5, 7, 4]",16,PAL1,0,R1002P
528.265,2.851,405896,PROB,2.818,n/a,-999,-999,n/a,n/a,n/a,n/a,4,"[1, 2, 2]",5,PAL1,0,R1002P
531.116,4.55,407321,PROB,4.55,n/a,-999,-999,n/a,n/a,n/a,n/a,4,"[7, 4, 9]",20,PAL1,0,R1002P
535.666,0.016,409596,STOP,n/a,n/a,-999,-999,n/a,n/a,n/a,n/a,4,"[-999, -999, -999]",-999,PAL1,0,R1002P
535.682,0.0,409604,TEST_START,n/a,n/a,-999,-999,n/a,n/a,n/a,n/a,4,"[0, 0, 0]",-999,PAL1,0,R1002P
535.682,0.017,409604,MATH_END,n/a,n/a,-999,-999,n/a,n/a,n/a,n/a,4,"[0, 0, 0]",-999,PAL1,0,R1002P
535.699,0.275,409613,TEST_ORIENT,n/a,n/a,5,1,RIB,ICE,ICE,RIB,4,"[0, 0, 0]",-999,PAL1,0,R1002P
536.5,4.0,410013,TEST_PROBE,n/a,wordpools/wordpool_EN.txt,5,1,RIB,ICE,ICE,RIB,4,"[0, 0, 0]",-999,PAL1,0,R1002P
536.501,2.509,410014,REC_START,n/a,n/a,5,-999,n/a,ICE,n/a,n/a,4,"[0, 0, 0]",-999,PAL1,0,R1002P
539.01,2.499,411268,REC_EVENT,2.509,n/a,5,1,RIB,ICE,ICE,RIB,4,"[0, 0, 0]",-999,PAL1,0,R1002P
541.509,0.009,412517,REC_END,n/a,n/a,5,-999,n/a,n/a,n/a,n/a,4,"[0, 0, 0]",-999,PAL1,0,R1002P
541.518,0.275,412522,TEST_ORIENT,n/a,n/a,6,2,NOSE,BENCH,BENCH,NOSE,4,"[0, 0, 0]",-999,PAL1,0,R1002P
542.518,4.0,413022,TEST_PROBE,n/a,wordpools/wordpool_EN.txt,6,2,NOSE,BENCH,BENCH,NOSE,4,"[0, 0, 0]",-999,PAL1,0,R1002P
542.518,2.054,413022,REC_START,n/a,n/a,6,-999,n/a,BENCH,n/a,n/a,4,"[0, 0, 0]",-999,PAL1,0,R1002P
544.572,2.964,414049,REC_EVENT,2.054,n/a,6,2,NOSE,BENCH,BENCH,NOSE,4,"[0, 0, 0]",-999,PAL1,0,R1002P
547.536,0.016,415531,REC_END,n/a,n/a,6,-999,n/a,n/a,n/a,n/a,4,"[0, 0, 0]",-999,PAL1,0,R1002P
547.552,0.275,415539,TEST_ORIENT,n/a,n/a,1,3,BOOK,FOOD,BOOK,FOOD,4,"[0, 0, 0]",-999,PAL1,0,R1002P
548.386,4.0,415956,TEST_PROBE,n/a,wordpools/wordpool_EN.txt,1,3,BOOK,FOOD,BOOK,FOOD,4,"[0, 0, 0]",-999,PAL1,0,R1002P
548.386,1.126,415956,REC_START,n/a,n/a,1,-999,n/a,FOOD,n/a,n/a,4,"[0, 0, 0]",-999,PAL1,0,R1002P
549.512,3.891,416519,REC_EVENT,1.126,n/a,1,3,BOOK,FOOD,BOOK,FOOD,4,"[0, 0, 0]",-999,PAL1,0,R1002P
553.403,0.017,418464,REC_END,n/a,n/a,1,-999,n/a,n/a,n/a,n/a,4,"[0, 0, 0]",-999,PAL1,0,R1002P
553.42,0.275,418473,TEST_ORIENT,n/a,n/a,2,4,DRESS,APE,DRESS,APE,4,"[0, 0, 0]",-999,PAL1,0,R1002P
554.337,4.0,418931,TEST_PROBE,n/a,wordpools/wordpool_EN.txt,2,4,DRESS,APE,DRESS,APE,4,"[0, 0, 0]",-999,PAL1,0,R1002P
554.338,1.183,418932,REC_START,n/a,n/a,2,-999,n/a,APE,n/a,n/a,4,"[0, 0, 0]",-999,PAL1,0,R1002P
555.521,3.833,419523,REC_EVENT,1.183,n/a,2,4,DRESS,APE,DRESS,APE,4,"[0, 0, 0]",-999,PAL1,0,R1002P
559.354,0.017,421440,REC_END,n/a,n/a,2,-999,n/a,n/a,n/a,n/a,4,"[0, 0, 0]",-999,PAL1,0,R1002P
559.371,0.275,421448,TEST_ORIENT,n/a,n/a,3,5,PEAR,MOUTH,MOUTH,PEAR,4,"[0, 0, 0]",-999,PAL1,0,R1002P
560.255,4.0,421890,TEST_PROBE,n/a,wordpools/wordpool_EN.txt,3,5,PEAR,MOUTH,MOUTH,PEAR,4,"[0, 0, 0]",-999,PAL1,0,R1002P
560.255,1.474,421890,REC_START,n/a,n/a,3,-999,n/a,MOUTH,n/a,n/a,4,"[0, 0, 0]",-999,PAL1,0,R1002P
561.729,3.552,422627,REC_EVENT,1.474,n/a,3,5,PEAR,MOUTH,MOUTH,PEAR,4,"[0, 0, 0]",-999,PAL1,0,R1002P
565.281,0.008,424403,REC_END,n/a,n/a,3,-999,n/a,n/a,n/a,n/a,4,"[0, 0, 0]",-999,PAL1,0,R1002P
565.289,0.275,424407,TEST_ORIENT,n/a,n/a,4,6,LEG,BADGE,LEG,BADGE,4,"[0, 0, 0]",-999,PAL1,0,R1002P
566.239,4.0,424882,TEST_PROBE,n/a,wordpools/wordpool_EN.txt,4,6,LEG,BADGE,LEG,BADGE,4,"[0, 0, 0]",-999,PAL1,0,R1002P
566.24,1.594,424882,REC_START,n/a,n/a,4,-999,n/a,BADGE,n/a,n/a,4,"[0, 0, 0]",-999,PAL1,0,R1002P
567.834,3.414,425679,REC_EVENT,1.594,n/a,4,6,LEG,BADGE,LEG,BADGE,4,"[0, 0, 0]",-999,PAL1,0,R1002P
571.248,2.091,427386,REC_END,n/a,n/a,4,-999,n/a,n/a,n/a,n/a,4,"[0, 0, 0]",-999,PAL1,0,R1002P
573.339,10.453,428432,ENCODING_START,n/a,n/a,0,-999,n/a,n/a,n/a,n/a,5,"[0, 0, 0]",-999,PAL1,0,R1002P
583.792,0.275,433658,STUDY_ORIENT,n/a,n/a,1,5,SHIRT,LIP,LIP,SHIRT,5,"[0, 0, 0]",-999,PAL1,0,R1002P
584.626,4.0,434075,STUDY_PAIR,n/a,wordpools/wordpool_EN.txt,1,5,SHIRT,LIP,LIP,SHIRT,5,"[0, 0, 0]",-999,PAL1,0,R1002P
589.644,0.275,436584,STUDY_ORIENT,n/a,n/a,2,2,FOAM,n/a,WORLD,FOAM,5,"[0, 0, 0]",-999,PAL1,0,R1002P
590.444,4.0,436984,STUDY_PAIR,n/a,wordpools/wordpool_EN.txt,2,2,FOAM,n/a,WORLD,FOAM,5,"[0, 0, 0]",-999,PAL1,0,R1002P
595.478,0.275,439501,STUDY_ORIENT,n/a,n/a,3,3,YARD,n/a,CAT,YARD,5,"[0, 0, 0]",-999,PAL1,0,R1002P
596.462,4.0,439993,STUDY_PAIR,n/a,wordpools/wordpool_EN.txt,3,3,YARD,n/a,CAT,YARD,5,"[0, 0, 0]",-999,PAL1,0,R1002P
601.496,0.275,442509,STUDY_ORIENT,n/a,n/a,4,4,SLUSH,HEART,SLUSH,HEART,5,"[0, 0, 0]",-999,PAL1,0,R1002P
602.446,4.0,442984,STUDY_PAIR,n/a,wordpools/wordpool_EN.txt,4,4,SLUSH,HEART,SLUSH,HEART,5,"[0, 0, 0]",-999,PAL1,0,R1002P
607.464,0.275,445493,STUDY_ORIENT,n/a,n/a,5,1,BOWL,CALF,BOWL,CALF,5,"[0, 0, 0]",-999,PAL1,0,R1002P
608.364,4.0,445943,STUDY_PAIR,n/a,wordpools/wordpool_EN.txt,5,1,BOWL,CALF,BOWL,CALF,5,"[0, 0, 0]",-999,PAL1,0,R1002P
613.382,0.275,448452,STUDY_ORIENT,n/a,n/a,6,6,SEA,SOAP,SEA,SOAP,5,"[0, 0, 0]",-999,PAL1,0,R1002P
614.315,4.0,448919,STUDY_PAIR,n/a,wordpools/wordpool_EN.txt,6,6,SEA,SOAP,SEA,SOAP,5,"[0, 0, 0]",-999,PAL1,0,R1002P
618.316,1.0,450919,START,n/a,n/a,-999,-999,n/a,n/a,n/a,n/a,5,"[-999, -999, -999]",-999,PAL1,0,R1002P
619.316,0.017,451419,MATH_START,n/a,n/a,-999,-999,n/a,n/a,n/a,n/a,5,"[0, 0, 0]",-999,PAL1,0,R1002P
619.333,4.333,451427,PROB,4.31,n/a,-999,-999,n/a,n/a,n/a,n/a,5,"[9, 1, 7]",17,PAL1,0,R1002P
623.666,4.319,453594,PROB,4.289,n/a,-999,-999,n/a,n/a,n/a,n/a,5,"[7, 5, 2]",14,PAL1,0,R1002P
627.985,3.15,455753,PROB,3.122,n/a,-999,-999,n/a,n/a,n/a,n/a,5,"[6, 6, 4]",16,PAL1,0,R1002P
631.135,4.268,457328,PROB,4.236,n/a,-999,-999,n/a,n/a,n/a,n/a,5,"[3, 1, 2]",6,PAL1,0,R1002P
635.403,2.85,459462,PROB,2.816,n/a,-999,-999,n/a,n/a,n/a,n/a,5,"[1, 6, 2]",9,PAL1,0,R1002P
638.253,5.254,460887,PROB,5.254,n/a,-999,-999,n/a,n/a,n/a,n/a,5,"[8, 4, 7]",19,PAL1,0,R1002P
643.507,0.014,463514,STOP,n/a,n/a,-999,-999,n/a,n/a,n/a,n/a,5,"[-999, -999, -999]",-999,PAL1,0,R1002P
643.521,0.0,463521,TEST_START,n/a,n/a,-999,-999,n/a,n/a,n/a,n/a,5,"[0, 0, 0]",-999,PAL1,0,R1002P
643.521,0.017,463521,MATH_END,n/a,n/a,-999,-999,n/a,n/a,n/a,n/a,5,"[0, 0, 0]",-999,PAL1,0,R1002P
643.538,0.275,463529,TEST_ORIENT,n/a,n/a,5,1,BOWL,CALF,BOWL,CALF,5,"[0, 0, 0]",-999,PAL1,0,R1002P
644.521,4.0,464021,TEST_PROBE,n/a,wordpools/wordpool_EN.txt,5,1,BOWL,CALF,BOWL,CALF,5,"[0, 0, 0]",-999,PAL1,0,R1002P
644.522,2.586,464021,REC_START,n/a,n/a,5,-999,n/a,CALF,n/a,n/a,5,"[0, 0, 0]",-999,PAL1,0,R1002P
647.108,2.439,465314,REC_EVENT,2.586,n/a,5,1,BOWL,CALF,BOWL,CALF,5,"[0, 0, 0]",-999,PAL1,0,R1002P
649.547,0.008,466534,REC_END,n/a,n/a,5,-999,n/a,n/a,n/a,n/a,5,"[0, 0, 0]",-999,PAL1,0,R1002P
649.555,0.275,466538,TEST_ORIENT,n/a,n/a,2,2,FOAM,n/a,WORLD,FOAM,5,"[0, 0, 0]",-999,PAL1,0,R1002P
650.406,4.0,466963,TEST_PROBE,n/a,wordpools/wordpool_EN.txt,2,2,FOAM,n/a,WORLD,FOAM,5,"[0, 0, 0]",-999,PAL1,0,R1002P
650.406,5.015,466963,REC_START,n/a,n/a,2,-999,n/a,n/a,n/a,n/a,5,"[0, 0, 0]",-999,PAL1,0,R1002P
655.421,0.002,469470,REC_EVENT,5.015,n/a,2,2,FOAM,<>,WORLD,FOAM,5,"[0, 0, 0]",-999,PAL1,0,R1002P
655.423,0.017,469471,REC_END,n/a,n/a,2,-999,n/a,n/a,n/a,n/a,5,"[0, 0, 0]",-999,PAL1,0,R1002P
655.44,0.275,469480,TEST_ORIENT,n/a,n/a,3,3,YARD,n/a,CAT,YARD,5,"[0, 0, 0]",-999,PAL1,0,R1002P
656.407,4.0,469963,TEST_PROBE,n/a,wordpools/wordpool_EN.txt,3,3,YARD,n/a,CAT,YARD,5,"[0, 0, 0]",-999,PAL1,0,R1002P
656.407,5.015,469963,REC_START,n/a,n/a,3,-999,n/a,n/a,n/a,n/a,5,"[0, 0, 0]",-999,PAL1,0,R1002P
661.422,0.002,472471,REC_EVENT,5.015,n/a,3,3,YARD,<>,CAT,YARD,5,"[0, 0, 0]",-999,PAL1,0,R1002P
661.424,0.017,472472,REC_END,n/a,n/a,3,-999,n/a,n/a,n/a,n/a,5,"[0, 0, 0]",-999,PAL1,0,R1002P
661.441,0.275,472480,TEST_ORIENT,n/a,n/a,4,4,SLUSH,HEART,SLUSH,HEART,5,"[0, 0, 0]",-999,PAL1,0,R1002P
662.441,4.0,472980,TEST_PROBE,n/a,wordpools/wordpool_EN.txt,4,4,SLUSH,HEART,SLUSH,HEART,5,"[0, 0, 0]",-999,PAL1,0,R1002P
662.442,0.965,472981,REC_START,n/a,n/a,4,-999,n/a,HEART,n/a,n/a,5,"[0, 0, 0]",-999,PAL1,0,R1002P
663.407,4.043,473463,REC_EVENT,0.965,n/a,4,4,SLUSH,HEART,SLUSH,HEART,5,"[0, 0, 0]",-999,PAL1,0,R1002P
667.45,0.009,475485,REC_END,n/a,n/a,4,-999,n/a,n/a,n/a,n/a,5,"[0, 0, 0]",-999,PAL1,0,R1002P
667.459,0.275,475489,TEST_ORIENT,n/a,n/a,1,5,SHIRT,LIP,LIP,SHIRT,5,"[0, 0, 0]",-999,PAL1,0,R1002P
668.426,4.0,475973,TEST_PROBE,n/a,wordpools/wordpool_EN.txt,1,5,SHIRT,LIP,LIP,SHIRT,5,"[0, 0, 0]",-999,PAL1,0,R1002P
668.426,1.57,475973,REC_START,n/a,n/a,1,-999,n/a,LIP,n/a,n/a,5,"[0, 0, 0]",-999,PAL1,0,R1002P
669.996,3.447,476758,REC_EVENT,1.57,n/a,1,5,SHIRT,LIP,LIP,SHIRT,5,"[0, 0, 0]",-999,PAL1,0,R1002P
673.443,0.017,478481,REC_END,n/a,n/a,1,-999,n/a,n/a,n/a,n/a,5,"[0, 0, 0]",-999,PAL1,0,R1002P
673.46,0.275,478489,TEST_ORIENT,n/a,n/a,6,6,SEA,SOAP,SEA,SOAP,5,"[0, 0, 0]",-999,PAL1,0,R1002P
674.443,4.0,478981,TEST_PROBE,n/a,wordpools/wordpool_EN.txt,6,6,SEA,SOAP,SEA,SOAP,5,"[0, 0, 0]",-999,PAL1,0,R1002P
674.444,2.58,478981,REC_START,n/a,n/a,6,-999,n/a,SOAP,n/a,n/a,5,"[0, 0, 0]",-999,PAL1,0,R1002P
677.024,2.428,480271,REC_EVENT,2.58,n/a,6,6,SEA,SOAP,SEA,SOAP,5,"[0, 0, 0]",-999,PAL1,0,R1002P
679.452,2.294,481485,REC_END,n/a,n/a,6,-999,n/a,n/a,n/a,n/a,5,"[0, 0, 0]",-999,PAL1,0,R1002P
681.746,10.451,482632,ENCODING_START,n/a,n/a,0,-999,n/a,n/a,n/a,n/a,6,"[0, 0, 0]",-999,PAL1,0,R1002P
692.197,0.275,487857,STUDY_ORIENT,n/a,n/a,1,3,WORM,n/a,WORM,MAZE,6,"[0, 0, 0]",-999,PAL1,0,R1002P
693.08,4.0,488299,STUDY_PAIR,n/a,wordpools/wordpool_EN.txt,1,3,WORM,n/a,WORM,MAZE,6,"[0, 0, 0]",-999,PAL1,0,R1002P
698.098,0.275,490808,STUDY_ORIENT,n/a,n/a,2,4,CLOWN,HOUSE,HOUSE,CLOWN,6,"[0, 0, 0]",-999,PAL1,0,R1002P
699.115,4.0,491316,STUDY_PAIR,n/a,wordpools/wordpool_EN.txt,2,4,CLOWN,HOUSE,HOUSE,CLOWN,6,"[0, 0, 0]",-999,PAL1,0,R1002P
704.149,0.275,493833,STUDY_ORIENT,n/a,n/a,3,5,STEAK,n/a,STEAK,FOX,6,"[0, 0, 0]",-999,PAL1,0,R1002P
705.049,4.0,494283,STUDY_PAIR,n/a,wordpools/wordpool_EN.txt,3,5,STEAK,n/a,STEAK,FOX,6,"[0, 0, 0]",-999,PAL1,0,R1002P
710.067,0.275,496792,STUDY_ORIENT,n/a,n/a,4,2,CLOTH,n/a,CLOTH,PRINCE,6,"[0, 0, 0]",-999,PAL1,0,R1002P
711.034,4.0,497275,STUDY_PAIR,n/a,wordpools/wordpool_EN.txt,4,2,CLOTH,n/a,CLOTH,PRINCE,6,"[0, 0, 0]",-999,PAL1,0,R1002P
716.068,0.275,499792,STUDY_ORIENT,n/a,n/a,5,1,SUN,n/a,PALM,SUN,6,"[0, 0, 0]",-999,PAL1,0,R1002P
717.052,4.0,500284,STUDY_PAIR,n/a,wordpools/wordpool_EN.txt,5,1,SUN,n/a,PALM,SUN,6,"[0, 0, 0]",-999,PAL1,0,R1002P
722.086,0.275,502801,STUDY_ORIENT,n/a,n/a,6,6,TIE,SKY,SKY,TIE,6,"[0, 0, 0]",-999,PAL1,0,R1002P
722.936,4.0,503226,STUDY_PAIR,n/a,wordpools/wordpool_EN.txt,6,6,TIE,SKY,SKY,TIE,6,"[0, 0, 0]",-999,PAL1,0,R1002P
726.937,1.0,505226,START,n/a,n/a,-999,-999,n/a,n/a,n/a,n/a,6,"[-999, -999, -999]",-999,PAL1,0,R1002P
727.937,0.017,505726,MATH_START,n/a,n/a,-999,-999,n/a,n/a,n/a,n/a,6,"[0, 0, 0]",-999,PAL1,0,R1002P
727.954,3.451,505735,PROB,3.417,n/a,-999,-999,n/a,n/a,n/a,n/a,6,"[4, 3, 2]",9,PAL1,0,R1002P
731.405,2.567,507460,PROB,2.534,n/a,-999,-999,n/a,n/a,n/a,n/a,6,"[1, 4, 6]",11,PAL1,0,R1002P
733.972,3.1,508744,PROB,3.079,n/a,-999,-999,n/a,n/a,n/a,n/a,6,"[1, 4, 9]",14,PAL1,0,R1002P
737.072,4.818,510294,PROB,4.794,n/a,-999,-999,n/a,n/a,n/a,n/a,6,"[6, 9, 6]",21,PAL1,0,R1002P
741.89,4.351,512703,PROB,4.329,n/a,-999,-999,n/a,n/a,n/a,n/a,6,"[6, 2, 5]",13,PAL1,0,R1002P
746.241,4.13,514878,PROB,4.13,n/a,-999,-999,n/a,n/a,n/a,n/a,6,"[3, 6, 8]",17,PAL1,0,R1002P
750.371,0.004,516943,STOP,n/a,n/a,-999,-999,n/a,n/a,n/a,n/a,6,"[-999, -999, -999]",-999,PAL1,0,R1002P
750.375,0.0,516945,TEST_START,n/a,n/a,-999,-999,n/a,n/a,n/a,n/a,6,"[0, 0, 0]",-999,PAL1,0,R1002P
750.375,0.017,516945,MATH_END,n/a,n/a,-999,-999,n/a,n/a,n/a,n/a,6,"[0, 0, 0]",-999,PAL1,0,R1002P
750.392,0.275,516953,TEST_ORIENT,n/a,n/a,5,1,SUN,n/a,PALM,SUN,6,"[0, 0, 0]",-999,PAL1,0,R1002P
751.242,4.0,517378,TEST_PROBE,n/a,wordpools/wordpool_EN.txt,5,1,SUN,n/a,PALM,SUN,6,"[0, 0, 0]",-999,PAL1,0,R1002P
751.242,5.015,517378,REC_START,n/a,n/a,5,-999,n/a,n/a,n/a,n/a,6,"[0, 0, 0]",-999,PAL1,0,R1002P
756.257,0.002,519886,REC_EVENT,5.015,n/a,5,1,SUN,<>,PALM,SUN,6,"[0, 0, 0]",-999,PAL1,0,R1002P
756.259,0.017,519887,REC_END,n/a,n/a,5,-999,n/a,n/a,n/a,n/a,6,"[0, 0, 0]",-999,PAL1,0,R1002P
756.276,0.275,519895,TEST_ORIENT,n/a,n/a,4,2,CLOTH,n/a,CLOTH,PRINCE,6,"[0, 0, 0]",-999,PAL1,0,R1002P
757.259,4.0,520387,TEST_PROBE,n/a,wordpools/wordpool_EN.txt,4,2,CLOTH,n/a,CLOTH,PRINCE,6,"[0, 0, 0]",-999,PAL1,0,R1002P
757.26,5.008,520387,REC_START,n/a,n/a,4,-999,n/a,n/a,n/a,n/a,6,"[0, 0, 0]",-999,PAL1,0,R1002P
762.268,0.001,522891,REC_END,n/a,n/a,4,-999,n/a,n/a,n/a,n/a,6,"[0, 0, 0]",-999,PAL1,0,R1002P
762.269,0.008,522892,REC_EVENT,5.009,n/a,4,2,CLOTH,<>,CLOTH,PRINCE,6,"[0, 0, 0]",-999,PAL1,0,R1002P
762.277,0.275,522896,TEST_ORIENT,n/a,n/a,1,3,WORM,n/a,WORM,MAZE,6,"[0, 0, 0]",-999,PAL1,0,R1002P
763.244,4.0,523379,TEST_PROBE,n/a,wordpools/wordpool_EN.txt,1,3,WORM,n/a,WORM,MAZE,6,"[0, 0, 0]",-999,PAL1,0,R1002P
763.244,2.137,523379,REC_START,n/a,n/a,1,-999,n/a,n/a,n/a,n/a,6,"[0, 0, 0]",-999,PAL1,0,R1002P
765.381,2.881,524447,REC_EVENT,2.137,n/a,1,3,WORM,<>,WORM,MAZE,6,"[0, 0, 0]",-999,PAL1,0,R1002P
768.262,0.016,525888,REC_END,n/a,n/a,1,-999,n/a,n/a,n/a,n/a,6,"[0, 0, 0]",-999,PAL1,0,R1002P
768.278,0.275,525896,TEST_ORIENT,n/a,n/a,2,4,CLOWN,HOUSE,HOUSE,CLOWN,6,"[0, 0, 0]",-999,PAL1,0,R1002P
769.262,0.0,526388,REC_START,n/a,n/a,2,-999,n/a,HOUSE,n/a,n/a,6,"[0, 0, 0]",-999,PAL1,0,R1002P
769.262,4.0,526388,TEST_PROBE,n/a,wordpools/wordpool_EN.txt,2,4,CLOWN,HOUSE,HOUSE,CLOWN,6,"[0, 0, 0]",-999,PAL1,0,R1002P
770.246,4.033,526880,REC_EVENT,0.984,n/a,2,4,CLOWN,HOUSE,HOUSE,CLOWN,6,"[0, 0, 0]",-999,PAL1,0,R1002P
774.279,0.017,528896,REC_END,n/a,n/a,2,-999,n/a,n/a,n/a,n/a,6,"[0, 0, 0]",-999,PAL1,0,R1002P
774.296,0.275,528905,TEST_ORIENT,n/a,n/a,3,5,STEAK,n/a,STEAK,FOX,6,"[0, 0, 0]",-999,PAL1,0,R1002P
775.129,4.0,529321,TEST_PROBE,n/a,wordpools/wordpool_EN.txt,3,5,STEAK,n/a,STEAK,FOX,6,"[0, 0, 0]",-999,PAL1,0,R1002P
775.13,5.009,529322,REC_START,n/a,n/a,3,-999,n/a,n/a,n/a,n/a,6,"[0, 0, 0]",-999,PAL1,0,R1002P
780.139,0.0,531826,REC_EVENT,5.009,n/a,3,5,STEAK,<>,STEAK,FOX,6,"[0, 0, 0]",-999,PAL1,0,R1002P
780.139,0.008,531826,REC_END,n/a,n/a,3,-999,n/a,n/a,n/a,n/a,6,"[0, 0, 0]",-999,PAL1,0,R1002P
780.147,0.275,531830,TEST_ORIENT,n/a,n/a,6,6,TIE,SKY,SKY,TIE,6,"[0, 0, 0]",-999,PAL1,0,R1002P
781.031,4.0,532272,TEST_PROBE,n/a,wordpools/wordpool_EN.txt,6,6,TIE,SKY,SKY,TIE,6,"[0, 0, 0]",-999,PAL1,0,R1002P
781.031,1.171,532272,REC_START,n/a,n/a,6,-999,n/a,SKY,n/a,n/a,6,"[0, 0, 0]",-999,PAL1,0,R1002P
782.202,1.0,532858,REC_EVENT,1.171,n/a,6,6,TIE,SKY,SKY,TIE,6,"[0, 0, 0]",-999,PAL1,0,R1002P
783.202,2.846,533357,REC_EVENT,2.171,n/a,6,6,TIE,<>,SKY,TIE,6,"[0, 0, 0]",-999,PAL1,0,R1002P
786.048,1.971,534780,REC_END,n/a,n/a,6,-999,n/a,n/a,n/a,n/a,6,"[0, 0, 0]",-999,PAL1,0,R1002P
788.019,10.449,535766,ENCODING_START,n/a,n/a,0,-999,n/a,n/a,n/a,n/a,7,"[0, 0, 0]",-999,PAL1,0,R1002P
798.468,0.275,540990,STUDY_ORIENT,n/a,n/a,1,3,POLE,PANTS,POLE,PANTS,7,"[0, 0, 0]",-999,PAL1,0,R1002P
799.384,4.0,541448,STUDY_PAIR,n/a,wordpools/wordpool_EN.txt,1,3,POLE,PANTS,POLE,PANTS,7,"[0, 0, 0]",-999,PAL1,0,R1002P
804.402,0.275,543957,STUDY_ORIENT,n/a,n/a,2,2,ROAD,ROPE,ROAD,ROPE,7,"[0, 0, 0]",-999,PAL1,0,R1002P
805.252,4.0,544382,STUDY_PAIR,n/a,wordpools/wordpool_EN.txt,2,2,ROAD,ROPE,ROAD,ROPE,7,"[0, 0, 0]",-999,PAL1,0,R1002P
810.27,0.275,546891,STUDY_ORIENT,n/a,n/a,3,1,SLIME,WOLF,SLIME,WOLF,7,"[0, 0, 0]",-999,PAL1,0,R1002P
811.07,4.0,547291,STUDY_PAIR,n/a,wordpools/wordpool_EN.txt,3,1,SLIME,WOLF,SLIME,WOLF,7,"[0, 0, 0]",-999,PAL1,0,R1002P
816.104,0.275,549808,STUDY_ORIENT,n/a,n/a,4,6,TOE,TOE,PEARL,TOE,7,"[0, 0, 0]",-999,PAL1,0,R1002P
817.121,4.0,550316,STUDY_PAIR,n/a,wordpools/wordpool_EN.txt,4,6,TOE,TOE,PEARL,TOE,7,"[0, 0, 0]",-999,PAL1,0,R1002P
822.155,0.275,552833,STUDY_ORIENT,n/a,n/a,5,5,SHRIMP,RAKE,SHRIMP,RAKE,7,"[0, 0, 0]",-999,PAL1,0,R1002P
822.939,4.0,553225,STUDY_PAIR,n/a,wordpools/wordpool_EN.txt,5,5,SHRIMP,RAKE,SHRIMP,RAKE,7,"[0, 0, 0]",-999,PAL1,0,R1002P
827.973,0.275,555742,STUDY_ORIENT,n/a,n/a,6,4,BRANCH,n/a,BRANCH,CHEEK,7,"[0, 0, 0]",-999,PAL1,0,R1002P
828.907,4.0,556209,STUDY_PAIR,n/a,wordpools/wordpool_EN.txt,6,4,BRANCH,n/a,BRANCH,CHEEK,7,"[0, 0, 0]",-999,PAL1,0,R1002P
832.925,0.999,558218,START,n/a,n/a,-999,-999,n/a,n/a,n/a,n/a,7,"[-999, -999, -999]",-999,PAL1,0,R1002P
833.924,0.017,558717,MATH_START,n/a,n/a,-999,-999,n/a,n/a,n/a,n/a,7,"[0, 0, 0]",-999,PAL1,0,R1002P
833.941,6.501,558726,PROB,6.47,n/a,-999,-999,n/a,n/a,n/a,n/a,7,"[9, 8, 8]",25,PAL1,0,R1002P
840.442,3.034,561976,PROB,3.001,n/a,-999,-999,n/a,n/a,n/a,n/a,7,"[3, 7, 5]",15,PAL1,0,R1002P
843.476,3.067,563493,PROB,3.039,n/a,-999,-999,n/a,n/a,n/a,n/a,7,"[5, 2, 5]",12,PAL1,0,R1002P
846.543,5.551,565026,PROB,5.527,n/a,-999,-999,n/a,n/a,n/a,n/a,7,"[3, 8, 3]",14,PAL1,0,R1002P
852.094,3.181,567802,PROB,3.181,n/a,-999,-999,n/a,n/a,n/a,n/a,7,"[4, 6, 5]",15,PAL1,0,R1002P
855.275,0.003,569392,STOP,n/a,n/a,-999,-999,n/a,n/a,n/a,n/a,7,"[-999, -999, -999]",-999,PAL1,0,R1002P
855.278,0.0,569394,MATH_END,n/a,n/a,-999,-999,n/a,n/a,n/a,n/a,7,"[0, 0, 0]",-999,PAL1,0,R1002P
855.278,0.017,569394,TEST_START,n/a,n/a,-999,-999,n/a,n/a,n/a,n/a,7,"[0, 0, 0]",-999,PAL1,0,R1002P
855.295,0.275,569402,TEST_ORIENT,n/a,n/a,3,1,SLIME,WOLF,SLIME,WOLF,7,"[0, 0, 0]",-999,PAL1,0,R1002P
856.245,4.0,569877,TEST_PROBE,n/a,wordpools/wordpool_EN.txt,3,1,SLIME,WOLF,SLIME,WOLF,7,"[0, 0, 0]",-999,PAL1,0,R1002P
856.246,4.573,569878,REC_START,n/a,n/a,3,-999,n/a,WOLF,n/a,n/a,7,"[0, 0, 0]",-999,PAL1,0,R1002P
860.819,0.435,572164,REC_EVENT,4.573,n/a,3,1,SLIME,WOLF,SLIME,WOLF,7,"[0, 0, 0]",-999,PAL1,0,R1002P
861.254,0.009,572381,REC_END,n/a,n/a,3,-999,n/a,n/a,n/a,n/a,7,"[0, 0, 0]",-999,PAL1,0,R1002P
861.263,0.275,572386,TEST_ORIENT,n/a,n/a,2,2,ROAD,ROPE,ROAD,ROPE,7,"[0, 0, 0]",-999,PAL1,0,R1002P
862.196,4.0,572852,TEST_PROBE,n/a,wordpools/wordpool_EN.txt,2,2,ROAD,ROPE,ROAD,ROPE,7,"[0, 0, 0]",-999,PAL1,0,R1002P
862.197,1.683,572853,REC_START,n/a,n/a,2,-999,n/a,ROPE,n/a,n/a,7,"[0, 0, 0]",-999,PAL1,0,R1002P
863.88,0.388,573694,REC_EVENT,1.683,n/a,2,2,ROAD,<>,ROAD,ROPE,7,"[0, 0, 0]",-999,PAL1,0,R1002P
864.268,2.938,573888,REC_EVENT,2.071,n/a,2,2,ROAD,ROPE,ROAD,ROPE,7,"[0, 0, 0]",-999,PAL1,0,R1002P
867.206,0.008,575357,REC_END,n/a,n/a,2,-999,n/a,n/a,n/a,n/a,7,"[0, 0, 0]",-999,PAL1,0,R1002P
867.214,0.275,575361,TEST_ORIENT,n/a,n/a,1,3,POLE,PANTS,POLE,PANTS,7,"[0, 0, 0]",-999,PAL1,0,R1002P
868.148,4.0,575828,TEST_PROBE,n/a,wordpools/wordpool_EN.txt,1,3,POLE,PANTS,POLE,PANTS,7,"[0, 0, 0]",-999,PAL1,0,R1002P
868.148,1.013,575828,REC_START,n/a,n/a,1,-999,n/a,PANTS,n/a,n/a,7,"[0, 0, 0]",-999,PAL1,0,R1002P
869.161,0.431,576335,REC_EVENT,1.013,n/a,1,3,POLE,POLE,POLE,PANTS,7,"[0, 0, 0]",-999,PAL1,0,R1002P
869.592,3.573,576550,REC_EVENT,1.444,n/a,1,3,POLE,PANTS,POLE,PANTS,7,"[0, 0, 0]",-999,PAL1,0,R1002P
873.165,0.017,578337,REC_END,n/a,n/a,1,-999,n/a,n/a,n/a,n/a,7,"[0, 0, 0]",-999,PAL1,0,R1002P
873.182,0.275,578345,TEST_ORIENT,n/a,n/a,6,4,BRANCH,n/a,BRANCH,CHEEK,7,"[0, 0, 0]",-999,PAL1,0,R1002P
874.199,4.0,578854,TEST_PROBE,n/a,wordpools/wordpool_EN.txt,6,4,BRANCH,n/a,BRANCH,CHEEK,7,"[0, 0, 0]",-999,PAL1,0,R1002P
874.199,5.017,578854,REC_START,n/a,n/a,6,-999,n/a,n/a,n/a,n/a,7,"[0, 0, 0]",-999,PAL1,0,R1002P
879.216,0.004,581362,REC_END,n/a,n/a,6,-999,n/a,n/a,n/a,n/a,7,"[0, 0, 0]",-999,PAL1,0,R1002P
879.22,0.013,581364,REC_EVENT,5.021,n/a,6,4,BRANCH,<>,BRANCH,CHEEK,7,"[0, 0, 0]",-999,PAL1,0,R1002P
879.233,0.275,581370,TEST_ORIENT,n/a,n/a,5,5,SHRIMP,RAKE,SHRIMP,RAKE,7,"[0, 0, 0]",-999,PAL1,0,R1002P
880.05,0.0,581779,REC_START,n/a,n/a,5,-999,n/a,RAKE,n/a,n/a,7,"[0, 0, 0]",-999,PAL1,0,R1002P
880.05,4.0,581779,TEST_PROBE,n/a,wordpools/wordpool_EN.txt,5,5,SHRIMP,RAKE,SHRIMP,RAKE,7,"[0, 0, 0]",-999,PAL1,0,R1002P
881.201,0.4,582354,REC_EVENT,1.151,n/a,5,5,SHRIMP,SHRIMP,SHRIMP,RAKE,7,"[0, 0, 0]",-999,PAL1,0,R1002P
881.601,3.466,582554,REC_EVENT,1.551,n/a,5,5,SHRIMP,RAKE,SHRIMP,RAKE,7,"[0, 0, 0]",-999,PAL1,0,R1002P
885.067,0.017,584287,REC_END,n/a,n/a,5,-999,n/a,n/a,n/a,n/a,7,"[0, 0, 0]",-999,PAL1,0,R1002P
885.084,0.275,584296,TEST_ORIENT,n/a,n/a,4,6,TOE,TOE,PEARL,TOE,7,"[0, 0, 0]",-999,PAL1,0,R1002P
885.918,4.0,584713,TEST_PROBE,n/a,wordpools/wordpool_EN.txt,4,6,TOE,TOE,PEARL,TOE,7,"[0, 0, 0]",-999,PAL1,0,R1002P
885.918,4.58,584713,REC_START,n/a,n/a,4,-999,n/a,TOE,n/a,n/a,7,"[0, 0, 0]",-999,PAL1,0,R1002P
890.498,0.437,587003,REC_EVENT,4.58,n/a,4,6,TOE,TOE,PEARL,TOE,7,"[0, 0, 0]",-999,PAL1,0,R1002P
890.935,1.915,587221,REC_END,n/a,n/a,4,-999,n/a,n/a,n/a,n/a,7,"[0, 0, 0]",-999,PAL1,0,R1002P
892.85,10.454,588179,ENCODING_START,n/a,n/a,0,-999,n/a,n/a,n/a,n/a,8,"[0, 0, 0]",-999,PAL1,0,R1002P
903.304,0.275,593405,STUDY_ORIENT,n/a,n/a,1,1,WHEEL,n/a,PHONE,WHEEL,8,"[0, 0, 0]",-999,PAL1,0,R1002P
904.155,4.0,593831,STUDY_PAIR,n/a,wordpools/wordpool_EN.txt,1,1,WHEEL,n/a,PHONE,WHEEL,8,"[0, 0, 0]",-999,PAL1,0,R1002P
909.189,0.275,596348,STUDY_ORIENT,n/a,n/a,2,2,CROW,n/a,BLUSH,CROW,8,"[0, 0, 0]",-999,PAL1,0,R1002P
910.072,4.0,596789,STUDY_PAIR,n/a,wordpools/wordpool_EN.txt,2,2,CROW,n/a,BLUSH,CROW,8,"[0, 0, 0]",-999,PAL1,0,R1002P
915.09,0.275,599298,STUDY_ORIENT,n/a,n/a,3,3,TRAY,TRAIN,TRAY,PLANE,8,"[0, 0, 0]",-999,PAL1,0,R1002P
915.99,4.0,599748,STUDY_PAIR,n/a,wordpools/wordpool_EN.txt,3,3,TRAY,TRAIN,TRAY,PLANE,8,"[0, 0, 0]",-999,PAL1,0,R1002P
921.008,0.275,602257,STUDY_ORIENT,n/a,n/a,4,4,BLOOM,CORD,BLOOM,CORD,8,"[0, 0, 0]",-999,PAL1,0,R1002P
922.025,4.0,602765,STUDY_PAIR,n/a,wordpools/wordpool_EN.txt,4,4,BLOOM,CORD,BLOOM,CORD,8,"[0, 0, 0]",-999,PAL1,0,R1002P
927.059,0.275,605282,STUDY_ORIENT,n/a,n/a,5,5,HORN,n/a,HORN,TRAIN,8,"[0, 0, 0]",-999,PAL1,0,R1002P
927.875,4.0,605690,STUDY_PAIR,n/a,wordpools/wordpool_EN.txt,5,5,HORN,n/a,HORN,TRAIN,8,"[0, 0, 0]",-999,PAL1,0,R1002P
932.91,0.275,608207,STUDY_ORIENT,n/a,n/a,6,6,BROOM,SHRIMP,SHARK,BROOM,8,"[0, 0, 0]",-999,PAL1,0,R1002P
933.843,4.0,608674,STUDY_PAIR,n/a,wordpools/wordpool_EN.txt,6,6,BROOM,SHRIMP,SHARK,BROOM,8,"[0, 0, 0]",-999,PAL1,0,R1002P
937.861,0.999,610683,START,n/a,n/a,-999,-999,n/a,n/a,n/a,n/a,8,"[-999, -999, -999]",-999,PAL1,0,R1002P
938.86,0.017,611182,MATH_START,n/a,n/a,-999,-999,n/a,n/a,n/a,n/a,8,"[0, 0, 0]",-999,PAL1,0,R1002P
938.877,5.569,611191,PROB,5.542,n/a,-999,-999,n/a,n/a,n/a,n/a,8,"[4, 3, 9]",16,PAL1,0,R1002P
944.446,4.333,613975,PROB,4.308,n/a,-999,-999,n/a,n/a,n/a,n/a,8,"[4, 7, 5]",16,PAL1,0,R1002P
948.779,3.652,616142,PROB,3.617,n/a,-999,-999,n/a,n/a,n/a,n/a,8,"[2, 2, 6]",10,PAL1,0,R1002P
952.431,3.917,617967,PROB,3.892,n/a,-999,-999,n/a,n/a,n/a,n/a,8,"[4, 1, 2]",7,PAL1,0,R1002P
956.348,3.695,619926,PROB,3.695,n/a,-999,-999,n/a,n/a,n/a,n/a,8,"[1, 8, 6]",15,PAL1,0,R1002P
960.043,0.006,621773,STOP,n/a,n/a,-999,-999,n/a,n/a,n/a,n/a,8,"[-999, -999, -999]",-999,PAL1,0,R1002P
960.049,0.0,621776,MATH_END,n/a,n/a,-999,-999,n/a,n/a,n/a,n/a,8,"[0, 0, 0]",-999,PAL1,0,R1002P
960.049,0.016,621776,TEST_START,n/a,n/a,-999,-999,n/a,n/a,n/a,n/a,8,"[0, 0, 0]",-999,PAL1,0,R1002P
960.065,0.275,621784,TEST_ORIENT,n/a,n/a,1,1,WHEEL,n/a,PHONE,WHEEL,8,"[0, 0, 0]",-999,PAL1,0,R1002P
960.982,4.0,622243,TEST_PROBE,n/a,wordpools/wordpool_EN.txt,1,1,WHEEL,n/a,PHONE,WHEEL,8,"[0, 0, 0]",-999,PAL1,0,R1002P
960.983,5.008,622243,REC_START,n/a,n/a,1,-999,n/a,n/a,n/a,n/a,8,"[0, 0, 0]",-999,PAL1,0,R1002P
965.991,0.001,624747,REC_END,n/a,n/a,1,-999,n/a,n/a,n/a,n/a,8,"[0, 0, 0]",-999,PAL1,0,R1002P
965.992,0.008,624748,REC_EVENT,5.009,n/a,1,1,WHEEL,<>,PHONE,WHEEL,8,"[0, 0, 0]",-999,PAL1,0,R1002P
966.0,0.275,624752,TEST_ORIENT,n/a,n/a,2,2,CROW,n/a,BLUSH,CROW,8,"[0, 0, 0]",-999,PAL1,0,R1002P
966.799,4.0,625151,TEST_PROBE,n/a,wordpools/wordpool_EN.txt,2,2,CROW,n/a,BLUSH,CROW,8,"[0, 0, 0]",-999,PAL1,0,R1002P
966.8,5.024,625152,REC_START,n/a,n/a,2,-999,n/a,n/a,n/a,n/a,8,"[0, 0, 0]",-999,PAL1,0,R1002P
971.824,0.003,627663,REC_END,n/a,n/a,2,-999,n/a,n/a,n/a,n/a,8,"[0, 0, 0]",-999,PAL1,0,R1002P
971.827,0.006,627665,REC_EVENT,5.027,n/a,2,2,CROW,<>,BLUSH,CROW,8,"[0, 0, 0]",-999,PAL1,0,R1002P
971.833,0.275,627668,TEST_ORIENT,n/a,n/a,3,3,TRAY,TRAIN,TRAY,PLANE,8,"[0, 0, 0]",-999,PAL1,0,R1002P
972.634,4.0,628068,TEST_PROBE,n/a,wordpools/wordpool_EN.txt,3,3,TRAY,TRAIN,TRAY,PLANE,8,"[0, 0, 0]",-999,PAL1,0,R1002P
972.635,1.149,628069,REC_START,n/a,n/a,3,-999,n/a,TRAIN,n/a,n/a,8,"[0, 0, 0]",-999,PAL1,0,R1002P
973.784,3.859,628643,REC_EVENT,1.149,n/a,3,3,TRAY,TRAIN,TRAY,PLANE,8,"[0, 0, 0]",-999,PAL1,0,R1002P
977.643,0.009,630573,REC_END,n/a,n/a,3,-999,n/a,n/a,n/a,n/a,8,"[0, 0, 0]",-999,PAL1,0,R1002P
977.652,0.275,630577,TEST_ORIENT,n/a,n/a,4,4,BLOOM,CORD,BLOOM,CORD,8,"[0, 0, 0]",-999,PAL1,0,R1002P
978.602,4.0,631052,TEST_PROBE,n/a,wordpools/wordpool_EN.txt,4,4,BLOOM,CORD,BLOOM,CORD,8,"[0, 0, 0]",-999,PAL1,0,R1002P
978.603,2.724,631053,REC_START,n/a,n/a,4,-999,n/a,CORD,n/a,n/a,8,"[0, 0, 0]",-999,PAL1,0,R1002P
981.327,0.37,632415,REC_EVENT,2.724,n/a,4,4,BLOOM,<>,BLOOM,CORD,8,"[0, 0, 0]",-999,PAL1,0,R1002P
981.697,1.914,632600,REC_EVENT,3.094,n/a,4,4,BLOOM,CORD,BLOOM,CORD,8,"[0, 0, 0]",-999,PAL1,0,R1002P
983.611,0.009,633557,REC_END,n/a,n/a,4,-999,n/a,n/a,n/a,n/a,8,"[0, 0, 0]",-999,PAL1,0,R1002P
983.62,0.275,633561,TEST_ORIENT,n/a,n/a,5,5,HORN,n/a,HORN,TRAIN,8,"[0, 0, 0]",-999,PAL1,0,R1002P
984.57,4.0,634036,TEST_PROBE,n/a,wordpools/wordpool_EN.txt,5,5,HORN,n/a,HORN,TRAIN,8,"[0, 0, 0]",-999,PAL1,0,R1002P
984.571,5.015,634037,REC_START,n/a,n/a,5,-999,n/a,n/a,n/a,n/a,8,"[0, 0, 0]",-999,PAL1,0,R1002P
989.586,0.001,636544,REC_EVENT,5.015,n/a,5,5,HORN,<>,HORN,TRAIN,8,"[0, 0, 0]",-999,PAL1,0,R1002P
989.587,0.017,636544,REC_END,n/a,n/a,5,-999,n/a,n/a,n/a,n/a,8,"[0, 0, 0]",-999,PAL1,0,R1002P
989.604,0.275,636553,TEST_ORIENT,n/a,n/a,6,6,BROOM,SHRIMP,SHARK,BROOM,8,"[0, 0, 0]",-999,PAL1,0,R1002P
990.471,4.0,636986,TEST_PROBE,n/a,wordpools/wordpool_EN.txt,6,6,BROOM,SHRIMP,SHARK,BROOM,8,"[0, 0, 0]",-999,PAL1,0,R1002P
990.472,1.444,636987,REC_START,n/a,n/a,6,-999,n/a,SHRIMP,n/a,n/a,8,"[0, 0, 0]",-999,PAL1,0,R1002P
991.916,3.556,637709,REC_EVENT,1.444,n/a,6,6,BROOM,SHRIMP,SHARK,BROOM,8,"[0, 0, 0]",-999,PAL1,0,R1002P
995.472,2.547,639487,REC_END,n/a,n/a,6,-999,n/a,n/a,n/a,n/a,8,"[0, 0, 0]",-999,PAL1,0,R1002P
998.019,10.439,640760,ENCODING_START,n/a,n/a,0,-999,n/a,n/a,n/a,n/a,9,"[0, 0, 0]",-999,PAL1,0,R1002P
1008.458,0.275,645979,STUDY_ORIENT,n/a,n/a,1,5,THUMB,n/a,FLOOR,THUMB,9,"[0, 0, 0]",-999,PAL1,0,R1002P
1009.358,4.0,646429,STUDY_PAIR,n/a,wordpools/wordpool_EN.txt,1,5,THUMB,n/a,FLOOR,THUMB,9,"[0, 0, 0]",-999,PAL1,0,R1002P
1014.376,0.275,648938,STUDY_ORIENT,n/a,n/a,2,2,PEA,n/a,PEA,NAIL,9,"[0, 0, 0]",-999,PAL1,0,R1002P
1015.393,4.0,649447,STUDY_PAIR,n/a,wordpools/wordpool_EN.txt,2,2,PEA,n/a,PEA,NAIL,9,"[0, 0, 0]",-999,PAL1,0,R1002P
1020.427,0.275,651964,STUDY_ORIENT,n/a,n/a,3,3,VINE,VINE,VINE,SEAT,9,"[0, 0, 0]",-999,PAL1,0,R1002P
1021.277,4.0,652389,STUDY_PAIR,n/a,wordpools/wordpool_EN.txt,3,3,VINE,VINE,VINE,SEAT,9,"[0, 0, 0]",-999,PAL1,0,R1002P
1026.294,0.275,654897,STUDY_ORIENT,n/a,n/a,4,4,STEAM,n/a,INK,STEAM,9,"[0, 0, 0]",-999,PAL1,0,R1002P
1027.311,4.0,655405,STUDY_PAIR,n/a,wordpools/wordpool_EN.txt,4,4,STEAM,n/a,INK,STEAM,9,"[0, 0, 0]",-999,PAL1,0,R1002P
1032.329,0.275,657914,STUDY_ORIENT,n/a,n/a,5,1,RUG,CHIN,CHIN,RUG,9,"[0, 0, 0]",-999,PAL1,0,R1002P
1033.229,4.0,658364,STUDY_PAIR,n/a,wordpools/wordpool_EN.txt,5,1,RUG,CHIN,CHIN,RUG,9,"[0, 0, 0]",-999,PAL1,0,R1002P
1038.247,0.275,660873,STUDY_ORIENT,n/a,n/a,6,6,HILL,n/a,CONE,HILL,9,"[0, 0, 0]",-999,PAL1,0,R1002P
1039.147,4.0,661323,STUDY_PAIR,n/a,wordpools/wordpool_EN.txt,6,6,HILL,n/a,CONE,HILL,9,"[0, 0, 0]",-999,PAL1,0,R1002P
1043.148,1.0,663323,START,n/a,n/a,-999,-999,n/a,n/a,n/a,n/a,9,"[-999, -999, -999]",-999,PAL1,0,R1002P
1044.148,0.017,663823,MATH_START,n/a,n/a,-999,-999,n/a,n/a,n/a,n/a,9,"[0, 0, 0]",-999,PAL1,0,R1002P
1044.165,5.384,663832,PROB,5.358,n/a,-999,-999,n/a,n/a,n/a,n/a,9,"[9, 7, 8]",24,PAL1,0,R1002P
1049.549,3.834,666524,PROB,3.814,n/a,-999,-999,n/a,n/a,n/a,n/a,9,"[7, 8, 3]",18,PAL1,0,R1002P
1053.383,3.551,668441,PROB,3.524,n/a,-999,-999,n/a,n/a,n/a,n/a,9,"[4, 6, 4]",14,PAL1,0,R1002P
1056.934,4.634,670216,PROB,4.613,n/a,-999,-999,n/a,n/a,n/a,n/a,9,"[7, 9, 5]",21,PAL1,0,R1002P
1061.568,10.739,672533,PROB,10.739,n/a,-999,-999,n/a,n/a,n/a,n/a,9,"[8, 5, 2]",15,PAL1,0,R1002P
1072.307,0.013,677902,STOP,n/a,n/a,-999,-999,n/a,n/a,n/a,n/a,9,"[-999, -999, -999]",-999,PAL1,0,R1002P
1072.32,0.0,677909,MATH_END,n/a,n/a,-999,-999,n/a,n/a,n/a,n/a,9,"[0, 0, 0]",-999,PAL1,0,R1002P
1072.32,0.017,677909,TEST_START,n/a,n/a,-999,-999,n/a,n/a,n/a,n/a,9,"[0, 0, 0]",-999,PAL1,0,R1002P
1072.337,0.275,677917,TEST_ORIENT,n/a,n/a,5,1,RUG,CHIN,CHIN,RUG,9,"[0, 0, 0]",-999,PAL1,0,R1002P
1073.137,4.0,678317,TEST_PROBE,n/a,wordpools/wordpool_EN.txt,5,1,RUG,CHIN,CHIN,RUG,9,"[0, 0, 0]",-999,PAL1,0,R1002P
1073.138,1.439,678318,REC_START,n/a,n/a,5,-999,n/a,CHIN,n/a,n/a,9,"[0, 0, 0]",-999,PAL1,0,R1002P
1074.577,3.571,679037,REC_EVENT,1.439,n/a,5,1,RUG,CHIN,CHIN,RUG,9,"[0, 0, 0]",-999,PAL1,0,R1002P
1078.148,0.006,680823,REC_END,n/a,n/a,5,-999,n/a,n/a,n/a,n/a,9,"[0, 0, 0]",-999,PAL1,0,R1002P
1078.154,0.275,680826,TEST_ORIENT,n/a,n/a,2,2,PEA,n/a,PEA,NAIL,9,"[0, 0, 0]",-999,PAL1,0,R1002P
1079.022,4.0,681259,TEST_PROBE,n/a,wordpools/wordpool_EN.txt,2,2,PEA,n/a,PEA,NAIL,9,"[0, 0, 0]",-999,PAL1,0,R1002P
1079.022,5.015,681259,REC_START,n/a,n/a,2,-999,n/a,n/a,n/a,n/a,9,"[0, 0, 0]",-999,PAL1,0,R1002P
1084.037,0.002,683767,REC_EVENT,5.015,n/a,2,2,PEA,<>,PEA,NAIL,9,"[0, 0, 0]",-999,PAL1,0,R1002P
1084.039,0.017,683768,REC_END,n/a,n/a,2,-999,n/a,n/a,n/a,n/a,9,"[0, 0, 0]",-999,PAL1,0,R1002P
1084.056,0.275,683776,TEST_ORIENT,n/a,n/a,3,3,VINE,VINE,VINE,SEAT,9,"[0, 0, 0]",-999,PAL1,0,R1002P
1084.872,4.0,684184,TEST_PROBE,n/a,wordpools/wordpool_EN.txt,3,3,VINE,VINE,VINE,SEAT,9,"[0, 0, 0]",-999,PAL1,0,R1002P
1084.873,0.788,684185,REC_START,n/a,n/a,3,-999,n/a,VINE,n/a,n/a,9,"[0, 0, 0]",-999,PAL1,0,R1002P
1085.661,4.229,684579,REC_EVENT,0.788,n/a,3,3,VINE,VINE,VINE,SEAT,9,"[0, 0, 0]",-999,PAL1,0,R1002P
1089.89,0.017,686693,REC_END,n/a,n/a,3,-999,n/a,n/a,n/a,n/a,9,"[0, 0, 0]",-999,PAL1,0,R1002P
1089.907,0.275,686702,TEST_ORIENT,n/a,n/a,4,4,STEAM,n/a,INK,STEAM,9,"[0, 0, 0]",-999,PAL1,0,R1002P
1090.706,4.0,687101,TEST_PROBE,n/a,wordpools/wordpool_EN.txt,4,4,STEAM,n/a,INK,STEAM,9,"[0, 0, 0]",-999,PAL1,0,R1002P
1090.707,5.008,687102,REC_START,n/a,n/a,4,-999,n/a,n/a,n/a,n/a,9,"[0, 0, 0]",-999,PAL1,0,R1002P
1095.715,0.001,689606,REC_END,n/a,n/a,4,-999,n/a,n/a,n/a,n/a,9,"[0, 0, 0]",-999,PAL1,0,R1002P
1095.716,0.008,689606,REC_EVENT,5.009,n/a,4,4,STEAM,<>,INK,STEAM,9,"[0, 0, 0]",-999,PAL1,0,R1002P
1095.724,0.275,689610,TEST_ORIENT,n/a,n/a,1,5,THUMB,n/a,FLOOR,THUMB,9,"[0, 0, 0]",-999,PAL1,0,R1002P
1096.558,4.0,690027,TEST_PROBE,n/a,wordpools/wordpool_EN.txt,1,5,THUMB,n/a,FLOOR,THUMB,9,"[0, 0, 0]",-999,PAL1,0,R1002P
1096.559,5.011,690028,REC_START,n/a,n/a,1,-999,n/a,n/a,n/a,n/a,9,"[0, 0, 0]",-999,PAL1,0,R1002P
1101.57,0.004,692533,REC_END,n/a,n/a,1,-999,n/a,n/a,n/a,n/a,9,"[0, 0, 0]",-999,PAL1,0,R1002P
1101.574,0.002,692535,REC_EVENT,5.015,n/a,1,5,THUMB,<>,FLOOR,THUMB,9,"[0, 0, 0]",-999,PAL1,0,R1002P
1101.576,0.275,692536,TEST_ORIENT,n/a,n/a,6,6,HILL,n/a,CONE,HILL,9,"[0, 0, 0]",-999,PAL1,0,R1002P
1102.576,4.0,693036,TEST_PROBE,n/a,wordpools/wordpool_EN.txt,6,6,HILL,n/a,CONE,HILL,9,"[0, 0, 0]",-999,PAL1,0,R1002P
1102.577,5.009,693036,REC_START,n/a,n/a,6,-999,n/a,n/a,n/a,n/a,9,"[0, 0, 0]",-999,PAL1,0,R1002P
1107.586,0.0,695541,REC_END,n/a,n/a,6,-999,n/a,n/a,n/a,n/a,9,"[0, 0, 0]",-999,PAL1,0,R1002P
1107.586,2.433,695541,REC_EVENT,5.009,n/a,6,6,HILL,<>,CONE,HILL,9,"[0, 0, 0]",-999,PAL1,0,R1002P
1110.019,10.444,696757,ENCODING_START,n/a,n/a,0,-999,n/a,n/a,n/a,n/a,10,"[0, 0, 0]",-999,PAL1,0,R1002P
1120.463,0.275,701979,STUDY_ORIENT,n/a,n/a,1,1,TAIL,n/a,FORT,TAIL,10,"[0, 0, 0]",-999,PAL1,0,R1002P
1121.363,4.0,702429,STUDY_PAIR,n/a,wordpools/wordpool_EN.txt,1,1,TAIL,n/a,FORT,TAIL,10,"[0, 0, 0]",-999,PAL1,0,R1002P
1126.381,0.275,704938,STUDY_ORIENT,n/a,n/a,2,6,SEED,n/a,JUDGE,SEED,10,"[0, 0, 0]",-999,PAL1,0,R1002P
1127.314,4.0,705404,STUDY_PAIR,n/a,wordpools/wordpool_EN.txt,2,6,SEED,n/a,JUDGE,SEED,10,"[0, 0, 0]",-999,PAL1,0,R1002P
1132.332,0.275,707913,STUDY_ORIENT,n/a,n/a,3,5,SWAMP,n/a,PLATE,SWAMP,10,"[0, 0, 0]",-999,PAL1,0,R1002P
1133.182,4.0,708338,STUDY_PAIR,n/a,wordpools/wordpool_EN.txt,3,5,SWAMP,n/a,PLATE,SWAMP,10,"[0, 0, 0]",-999,PAL1,0,R1002P
1138.217,0.275,710855,STUDY_ORIENT,n/a,n/a,4,2,BRICK,CASH,CASH,BRICK,10,"[0, 0, 0]",-999,PAL1,0,R1002P
1139.15,4.0,711322,STUDY_PAIR,n/a,wordpools/wordpool_EN.txt,4,2,BRICK,CASH,CASH,BRICK,10,"[0, 0, 0]",-999,PAL1,0,R1002P
1144.184,0.275,713839,STUDY_ORIENT,n/a,n/a,5,3,CART,SNOW,SNOW,CART,10,"[0, 0, 0]",-999,PAL1,0,R1002P
1145.168,4.0,714331,STUDY_PAIR,n/a,wordpools/wordpool_EN.txt,5,3,CART,SNOW,SNOW,CART,10,"[0, 0, 0]",-999,PAL1,0,R1002P
1150.202,0.275,716848,STUDY_ORIENT,n/a,n/a,6,4,CLIFF,HORSE,CLIFF,HORSE,10,"[0, 0, 0]",-999,PAL1,0,R1002P
1151.036,4.0,717265,STUDY_PAIR,n/a,wordpools/wordpool_EN.txt,6,4,CLIFF,HORSE,CLIFF,HORSE,10,"[0, 0, 0]",-999,PAL1,0,R1002P
1155.054,0.999,719273,START,n/a,n/a,-999,-999,n/a,n/a,n/a,n/a,10,"[-999, -999, -999]",-999,PAL1,0,R1002P
1156.053,0.017,719773,MATH_START,n/a,n/a,-999,-999,n/a,n/a,n/a,n/a,10,"[0, 0, 0]",-999,PAL1,0,R1002P
1156.07,5.267,719781,PROB,5.245,n/a,-999,-999,n/a,n/a,n/a,n/a,10,"[9, 6, 7]",24,PAL1,0,R1002P
1161.337,4.367,722415,PROB,4.345,n/a,-999,-999,n/a,n/a,n/a,n/a,10,"[7, 5, 3]",15,PAL1,0,R1002P
1165.704,4.319,724598,PROB,4.299,n/a,-999,-999,n/a,n/a,n/a,n/a,10,"[3, 2, 9]",14,PAL1,0,R1002P
1170.023,3.167,726758,PROB,3.14,n/a,-999,-999,n/a,n/a,n/a,n/a,10,"[4, 5, 5]",14,PAL1,0,R1002P
1173.19,3.181,728341,PROB,3.181,n/a,-999,-999,n/a,n/a,n/a,n/a,10,"[4, 6, 1]",11,PAL1,0,R1002P
1176.371,0.002,729931,STOP,n/a,n/a,-999,-999,n/a,n/a,n/a,n/a,10,"[-999, -999, -999]",-999,PAL1,0,R1002P
1176.373,0.0,729932,MATH_END,n/a,n/a,-999,-999,n/a,n/a,n/a,n/a,10,"[0, 0, 0]",-999,PAL1,0,R1002P
1176.373,0.017,729932,TEST_START,n/a,n/a,-999,-999,n/a,n/a,n/a,n/a,10,"[0, 0, 0]",-999,PAL1,0,R1002P
1176.39,0.275,729941,TEST_ORIENT,n/a,n/a,1,1,TAIL,n/a,FORT,TAIL,10,"[0, 0, 0]",-999,PAL1,0,R1002P
1177.207,4.0,730349,TEST_PROBE,n/a,wordpools/wordpool_EN.txt,1,1,TAIL,n/a,FORT,TAIL,10,"[0, 0, 0]",-999,PAL1,0,R1002P
1177.208,5.009,730350,REC_START,n/a,n/a,1,-999,n/a,n/a,n/a,n/a,10,"[0, 0, 0]",-999,PAL1,0,R1002P
1182.217,0.0,732854,REC_EVENT,5.009,n/a,1,1,TAIL,<>,FORT,TAIL,10,"[0, 0, 0]",-999,PAL1,0,R1002P
1182.217,0.008,732854,REC_END,n/a,n/a,1,-999,n/a,n/a,n/a,n/a,10,"[0, 0, 0]",-999,PAL1,0,R1002P
1182.225,0.275,732858,TEST_ORIENT,n/a,n/a,4,2,BRICK,CASH,CASH,BRICK,10,"[0, 0, 0]",-999,PAL1,0,R1002P
1183.242,4.0,733367,TEST_PROBE,n/a,wordpools/wordpool_EN.txt,4,2,BRICK,CASH,CASH,BRICK,10,"[0, 0, 0]",-999,PAL1,0,R1002P
1183.242,2.219,733367,REC_START,n/a,n/a,4,-999,n/a,CASH,n/a,n/a,10,"[0, 0, 0]",-999,PAL1,0,R1002P
1185.461,2.798,734476,REC_EVENT,2.219,n/a,4,2,BRICK,CASH,CASH,BRICK,10,"[0, 0, 0]",-999,PAL1,0,R1002P
1188.259,0.017,735875,REC_END,n/a,n/a,4,-999,n/a,n/a,n/a,n/a,10,"[0, 0, 0]",-999,PAL1,0,R1002P
1188.276,0.275,735884,TEST_ORIENT,n/a,n/a,5,3,CART,SNOW,SNOW,CART,10,"[0, 0, 0]",-999,PAL1,0,R1002P
1189.31,4.0,736401,TEST_PROBE,n/a,wordpools/wordpool_EN.txt,5,3,CART,SNOW,SNOW,CART,10,"[0, 0, 0]",-999,PAL1,0,R1002P
1189.311,1.143,736401,REC_START,n/a,n/a,5,-999,n/a,SNOW,n/a,n/a,10,"[0, 0, 0]",-999,PAL1,0,R1002P
1190.454,3.882,736972,REC_EVENT,1.143,n/a,5,3,CART,SNOW,SNOW,CART,10,"[0, 0, 0]",-999,PAL1,0,R1002P
1194.336,0.008,738913,REC_END,n/a,n/a,5,-999,n/a,n/a,n/a,n/a,10,"[0, 0, 0]",-999,PAL1,0,R1002P
1194.344,0.275,738917,TEST_ORIENT,n/a,n/a,6,4,CLIFF,HORSE,CLIFF,HORSE,10,"[0, 0, 0]",-999,PAL1,0,R1002P
1195.261,4.0,739376,TEST_PROBE,n/a,wordpools/wordpool_EN.txt,6,4,CLIFF,HORSE,CLIFF,HORSE,10,"[0, 0, 0]",-999,PAL1,0,R1002P
1195.261,1.265,739376,REC_START,n/a,n/a,6,-999,n/a,HORSE,n/a,n/a,10,"[0, 0, 0]",-999,PAL1,0,R1002P
1196.526,3.752,740008,REC_EVENT,1.265,n/a,6,4,CLIFF,HORSE,CLIFF,HORSE,10,"[0, 0, 0]",-999,PAL1,0,R1002P
1200.278,0.017,741884,REC_END,n/a,n/a,6,-999,n/a,n/a,n/a,n/a,10,"[0, 0, 0]",-999,PAL1,0,R1002P
1200.295,0.275,741893,TEST_ORIENT,n/a,n/a,3,5,SWAMP,n/a,PLATE,SWAMP,10,"[0, 0, 0]",-999,PAL1,0,R1002P
1201.145,4.0,742318,TEST_PROBE,n/a,wordpools/wordpool_EN.txt,3,5,SWAMP,n/a,PLATE,SWAMP,10,"[0, 0, 0]",-999,PAL1,0,R1002P
1201.145,3.26,742318,REC_START,n/a,n/a,3,-999,n/a,n/a,n/a,n/a,10,"[0, 0, 0]",-999,PAL1,0,R1002P
1204.405,1.758,743948,REC_EVENT,3.26,n/a,3,5,SWAMP,<>,PLATE,SWAMP,10,"[0, 0, 0]",-999,PAL1,0,R1002P
1206.163,0.016,744827,REC_END,n/a,n/a,3,-999,n/a,n/a,n/a,n/a,10,"[0, 0, 0]",-999,PAL1,0,R1002P
1206.179,0.275,744835,TEST_ORIENT,n/a,n/a,2,6,SEED,n/a,JUDGE,SEED,10,"[0, 0, 0]",-999,PAL1,0,R1002P
1207.046,4.0,745268,TEST_PROBE,n/a,wordpools/wordpool_EN.txt,2,6,SEED,n/a,JUDGE,SEED,10,"[0, 0, 0]",-999,PAL1,0,R1002P
1207.047,5.003,745269,REC_START,n/a,n/a,2,-999,n/a,n/a,n/a,n/a,10,"[0, 0, 0]",-999,PAL1,0,R1002P
1212.05,0.005,747770,REC_EVENT,5.003,n/a,2,6,SEED,<>,JUDGE,SEED,10,"[0, 0, 0]",-999,PAL1,0,R1002P
1212.055,2.132,747772,REC_END,n/a,n/a,2,-999,n/a,n/a,n/a,n/a,10,"[0, 0, 0]",-999,PAL1,0,R1002P
1214.187,10.446,748838,ENCODING_START,n/a,n/a,0,-999,n/a,n/a,n/a,n/a,11,"[0, 0, 0]",-999,PAL1,0,R1002P
1224.633,0.275,754061,STUDY_ORIENT,n/a,n/a,1,1,LOCK,n/a,LAMB,LOCK,11,"[0, 0, 0]",-999,PAL1,0,R1002P
1225.583,4.0,754536,STUDY_PAIR,n/a,wordpools/wordpool_EN.txt,1,1,LOCK,n/a,LAMB,LOCK,11,"[0, 0, 0]",-999,PAL1,0,R1002P
1230.601,0.275,757045,STUDY_ORIENT,n/a,n/a,2,2,CAKE,MILK,CAKE,EGG,11,"[0, 0, 0]",-999,PAL1,0,R1002P
1231.451,4.0,757470,STUDY_PAIR,n/a,wordpools/wordpool_EN.txt,2,2,CAKE,MILK,CAKE,EGG,11,"[0, 0, 0]",-999,PAL1,0,R1002P
1236.485,0.275,759987,STUDY_ORIENT,n/a,n/a,3,3,BAT,MOON,BAT,MOON,11,"[0, 0, 0]",-999,PAL1,0,R1002P
1237.485,4.0,760487,STUDY_PAIR,n/a,wordpools/wordpool_EN.txt,3,3,BAT,MOON,BAT,MOON,11,"[0, 0, 0]",-999,PAL1,0,R1002P
1242.503,0.275,762996,STUDY_ORIENT,n/a,n/a,4,6,CORN,NET,NET,CORN,11,"[0, 0, 0]",-999,PAL1,0,R1002P
1243.353,4.0,763421,STUDY_PAIR,n/a,wordpools/wordpool_EN.txt,4,6,CORN,NET,NET,CORN,11,"[0, 0, 0]",-999,PAL1,0,R1002P
1248.371,0.275,765929,STUDY_ORIENT,n/a,n/a,5,5,SNAIL,n/a,SNAIL,MILK,11,"[0, 0, 0]",-999,PAL1,0,R1002P
1249.355,4.0,766421,STUDY_PAIR,n/a,wordpools/wordpool_EN.txt,5,5,SNAIL,n/a,SNAIL,MILK,11,"[0, 0, 0]",-999,PAL1,0,R1002P
1254.389,0.275,768938,STUDY_ORIENT,n/a,n/a,6,4,BEACH,CUP,CUP,BEACH,11,"[0, 0, 0]",-999,PAL1,0,R1002P
1255.339,4.0,769413,STUDY_PAIR,n/a,wordpools/wordpool_EN.txt,6,4,BEACH,CUP,CUP,BEACH,11,"[0, 0, 0]",-999,PAL1,0,R1002P
1259.357,0.999,771422,START,n/a,n/a,-999,-999,n/a,n/a,n/a,n/a,11,"[-999, -999, -999]",-999,PAL1,0,R1002P
1260.356,0.017,771922,MATH_START,n/a,n/a,-999,-999,n/a,n/a,n/a,n/a,11,"[0, 0, 0]",-999,PAL1,0,R1002P
1260.373,4.868,771930,PROB,4.838,n/a,-999,-999,n/a,n/a,n/a,n/a,11,"[4, 8, 6]",18,PAL1,0,R1002P
1265.241,3.701,774364,PROB,3.674,n/a,-999,-999,n/a,n/a,n/a,n/a,11,"[7, 8, 1]",16,PAL1,0,R1002P
1268.942,5.833,776214,PROB,5.812,n/a,-999,-999,n/a,n/a,n/a,n/a,11,"[7, 5, 3]",15,PAL1,0,R1002P
1274.775,3.135,779131,PROB,3.116,n/a,-999,-999,n/a,n/a,n/a,n/a,11,"[2, 3, 7]",12,PAL1,0,R1002P
1277.91,3.613,780698,PROB,3.613,n/a,-999,-999,n/a,n/a,n/a,n/a,11,"[4, 1, 5]",10,PAL1,0,R1002P
1281.523,0.004,782505,STOP,n/a,n/a,-999,-999,n/a,n/a,n/a,n/a,11,"[-999, -999, -999]",-999,PAL1,0,R1002P
1281.527,0.0,782507,MATH_END,n/a,n/a,-999,-999,n/a,n/a,n/a,n/a,11,"[0, 0, 0]",-999,PAL1,0,R1002P
1281.527,0.017,782507,TEST_START,n/a,n/a,-999,-999,n/a,n/a,n/a,n/a,11,"[0, 0, 0]",-999,PAL1,0,R1002P
1281.544,0.275,782515,TEST_ORIENT,n/a,n/a,1,1,LOCK,n/a,LAMB,LOCK,11,"[0, 0, 0]",-999,PAL1,0,R1002P
1282.361,4.0,782924,TEST_PROBE,n/a,wordpools/wordpool_EN.txt,1,1,LOCK,n/a,LAMB,LOCK,11,"[0, 0, 0]",-999,PAL1,0,R1002P
1282.362,5.021,782924,REC_START,n/a,n/a,1,-999,n/a,n/a,n/a,n/a,11,"[0, 0, 0]",-999,PAL1,0,R1002P
1287.383,0.003,785434,REC_EVENT,5.021,n/a,1,1,LOCK,<>,LAMB,LOCK,11,"[0, 0, 0]",-999,PAL1,0,R1002P
1287.386,0.009,785436,REC_END,n/a,n/a,1,-999,n/a,n/a,n/a,n/a,11,"[0, 0, 0]",-999,PAL1,0,R1002P
1287.395,0.275,785440,TEST_ORIENT,n/a,n/a,2,2,CAKE,MILK,CAKE,EGG,11,"[0, 0, 0]",-999,PAL1,0,R1002P
1288.279,4.0,785882,TEST_PROBE,n/a,wordpools/wordpool_EN.txt,2,2,CAKE,MILK,CAKE,EGG,11,"[0, 0, 0]",-999,PAL1,0,R1002P
1288.279,2.839,785882,REC_START,n/a,n/a,2,-999,n/a,MILK,n/a,n/a,11,"[0, 0, 0]",-999,PAL1,0,R1002P
1291.118,2.178,787302,REC_EVENT,2.839,n/a,2,2,CAKE,MILK,CAKE,EGG,11,"[0, 0, 0]",-999,PAL1,0,R1002P
1293.296,0.017,788391,REC_END,n/a,n/a,2,-999,n/a,n/a,n/a,n/a,11,"[0, 0, 0]",-999,PAL1,0,R1002P
1293.313,0.275,788399,TEST_ORIENT,n/a,n/a,3,3,BAT,MOON,BAT,MOON,11,"[0, 0, 0]",-999,PAL1,0,R1002P
1294.28,4.0,788883,TEST_PROBE,n/a,wordpools/wordpool_EN.txt,3,3,BAT,MOON,BAT,MOON,11,"[0, 0, 0]",-999,PAL1,0,R1002P
1294.28,1.573,788883,REC_START,n/a,n/a,3,-999,n/a,MOON,n/a,n/a,11,"[0, 0, 0]",-999,PAL1,0,R1002P
1295.853,3.444,789669,REC_EVENT,1.573,n/a,3,3,BAT,MOON,BAT,MOON,11,"[0, 0, 0]",-999,PAL1,0,R1002P
1299.297,0.017,791391,REC_END,n/a,n/a,3,-999,n/a,n/a,n/a,n/a,11,"[0, 0, 0]",-999,PAL1,0,R1002P
1299.314,0.275,791400,TEST_ORIENT,n/a,n/a,6,4,BEACH,CUP,CUP,BEACH,11,"[0, 0, 0]",-999,PAL1,0,R1002P
1300.131,4.0,791808,TEST_PROBE,n/a,wordpools/wordpool_EN.txt,6,4,BEACH,CUP,CUP,BEACH,11,"[0, 0, 0]",-999,PAL1,0,R1002P
1300.131,1.19,791808,REC_START,n/a,n/a,6,-999,n/a,CUP,n/a,n/a,11,"[0, 0, 0]",-999,PAL1,0,R1002P
1301.321,3.827,792403,REC_EVENT,1.19,n/a,6,4,BEACH,CUP,CUP,BEACH,11,"[0, 0, 0]",-999,PAL1,0,R1002P
1305.148,0.017,794316,REC_END,n/a,n/a,6,-999,n/a,n/a,n/a,n/a,11,"[0, 0, 0]",-999,PAL1,0,R1002P
1305.165,0.275,794325,TEST_ORIENT,n/a,n/a,5,5,SNAIL,n/a,SNAIL,MILK,11,"[0, 0, 0]",-999,PAL1,0,R1002P
1305.999,4.0,794742,TEST_PROBE,n/a,wordpools/wordpool_EN.txt,5,5,SNAIL,n/a,SNAIL,MILK,11,"[0, 0, 0]",-999,PAL1,0,R1002P
1306.0,5.021,794742,REC_START,n/a,n/a,5,-999,n/a,n/a,n/a,n/a,11,"[0, 0, 0]",-999,PAL1,0,R1002P
1311.021,0.003,797253,REC_EVENT,5.021,n/a,5,5,SNAIL,<>,SNAIL,MILK,11,"[0, 0, 0]",-999,PAL1,0,R1002P
1311.024,0.009,797254,REC_END,n/a,n/a,5,-999,n/a,n/a,n/a,n/a,11,"[0, 0, 0]",-999,PAL1,0,R1002P
1311.033,0.275,797259,TEST_ORIENT,n/a,n/a,4,6,CORN,NET,NET,CORN,11,"[0, 0, 0]",-999,PAL1,0,R1002P
1312.0,4.0,797742,TEST_PROBE,n/a,wordpools/wordpool_EN.txt,4,6,CORN,NET,NET,CORN,11,"[0, 0, 0]",-999,PAL1,0,R1002P
1312.0,1.902,797742,REC_START,n/a,n/a,4,-999,n/a,NET,n/a,n/a,11,"[0, 0, 0]",-999,PAL1,0,R1002P
1313.902,0.125,798693,REC_EVENT,1.902,n/a,4,6,CORN,<>,NET,CORN,11,"[0, 0, 0]",-999,PAL1,0,R1002P
1314.027,2.99,798756,REC_EVENT,2.027,n/a,4,6,CORN,NET,NET,CORN,11,"[0, 0, 0]",-999,PAL1,0,R1002P
1317.017,2.274,800251,REC_END,n/a,n/a,4,-999,n/a,n/a,n/a,n/a,11,"[0, 0, 0]",-999,PAL1,0,R1002P
1319.291,10.445,801388,ENCODING_START,n/a,n/a,0,-999,n/a,n/a,n/a,n/a,12,"[0, 0, 0]",-999,PAL1,0,R1002P
1329.736,0.275,806610,STUDY_ORIENT,n/a,n/a,1,3,TEETH,WAVE,WAVE,TEETH,12,"[0, 0, 0]",-999,PAL1,0,R1002P
1330.686,4.0,807085,STUDY_PAIR,n/a,wordpools/wordpool_EN.txt,1,3,TEETH,WAVE,WAVE,TEETH,12,"[0, 0, 0]",-999,PAL1,0,R1002P
1335.72,0.275,809602,STUDY_ORIENT,n/a,n/a,2,2,DESK,GRAPE,GRAPE,DESK,12,"[0, 0, 0]",-999,PAL1,0,R1002P
1336.621,4.0,810052,STUDY_PAIR,n/a,wordpools/wordpool_EN.txt,2,2,DESK,GRAPE,GRAPE,DESK,12,"[0, 0, 0]",-999,PAL1,0,R1002P
1341.639,0.275,812561,STUDY_ORIENT,n/a,n/a,3,5,GOAT,HOOF,GOAT,HOOF,12,"[0, 0, 0]",-999,PAL1,0,R1002P
1342.489,4.0,812986,STUDY_PAIR,n/a,wordpools/wordpool_EN.txt,3,5,GOAT,HOOF,GOAT,HOOF,12,"[0, 0, 0]",-999,PAL1,0,R1002P
1347.507,0.275,815495,STUDY_ORIENT,n/a,n/a,4,6,JUICE,TOOL,TOOL,JUICE,12,"[0, 0, 0]",-999,PAL1,0,R1002P
1348.34,4.0,815911,STUDY_PAIR,n/a,wordpools/wordpool_EN.txt,4,6,JUICE,TOOL,TOOL,JUICE,12,"[0, 0, 0]",-999,PAL1,0,R1002P
1353.358,0.275,818420,STUDY_ORIENT,n/a,n/a,5,1,ROOF,FOOT,FOOT,ROOF,12,"[0, 0, 0]",-999,PAL1,0,R1002P
1354.291,4.0,818887,STUDY_PAIR,n/a,wordpools/wordpool_EN.txt,5,1,ROOF,FOOT,FOOT,ROOF,12,"[0, 0, 0]",-999,PAL1,0,R1002P
1359.309,0.275,821395,STUDY_ORIENT,n/a,n/a,6,4,VEST,BOAT,SHIP,VEST,12,"[0, 0, 0]",-999,PAL1,0,R1002P
1360.276,4.0,821879,STUDY_PAIR,n/a,wordpools/wordpool_EN.txt,6,4,VEST,BOAT,SHIP,VEST,12,"[0, 0, 0]",-999,PAL1,0,R1002P
1364.294,0.999,823888,START,n/a,n/a,-999,-999,n/a,n/a,n/a,n/a,12,"[-999, -999, -999]",-999,PAL1,0,R1002P
1365.293,0.017,824387,MATH_START,n/a,n/a,-999,-999,n/a,n/a,n/a,n/a,12,"[0, 0, 0]",-999,PAL1,0,R1002P
1365.31,3.533,824396,PROB,3.5,n/a,-999,-999,n/a,n/a,n/a,n/a,12,"[5, 3, 1]",9,PAL1,0,R1002P
1368.843,6.436,826162,PROB,6.416,n/a,-999,-999,n/a,n/a,n/a,n/a,12,"[7, 8, 6]",21,PAL1,0,R1002P
1375.279,3.284,829380,PROB,3.252,n/a,-999,-999,n/a,n/a,n/a,n/a,12,"[7, 1, 3]",11,PAL1,0,R1002P
1378.563,3.817,831022,PROB,3.784,n/a,-999,-999,n/a,n/a,n/a,n/a,12,"[7, 7, 4]",18,PAL1,0,R1002P
1382.38,4.631,832930,PROB,4.631,n/a,-999,-999,n/a,n/a,n/a,n/a,12,"[8, 5, 7]",20,PAL1,0,R1002P
1387.011,0.003,835246,STOP,n/a,n/a,-999,-999,n/a,n/a,n/a,n/a,12,"[-999, -999, -999]",-999,PAL1,0,R1002P
1387.014,0.0,835247,TEST_START,n/a,n/a,-999,-999,n/a,n/a,n/a,n/a,12,"[0, 0, 0]",-999,PAL1,0,R1002P
1387.014,0.017,835247,MATH_END,n/a,n/a,-999,-999,n/a,n/a,n/a,n/a,12,"[0, 0, 0]",-999,PAL1,0,R1002P
1387.031,0.275,835256,TEST_ORIENT,n/a,n/a,5,1,ROOF,FOOT,FOOT,ROOF,12,"[0, 0, 0]",-999,PAL1,0,R1002P
1387.931,4.0,835706,TEST_PROBE,n/a,wordpools/wordpool_EN.txt,5,1,ROOF,FOOT,FOOT,ROOF,12,"[0, 0, 0]",-999,PAL1,0,R1002P
1387.932,1.252,835706,REC_START,n/a,n/a,5,-999,n/a,FOOT,n/a,n/a,12,"[0, 0, 0]",-999,PAL1,0,R1002P
1389.184,3.756,836332,REC_EVENT,1.252,n/a,5,1,ROOF,FOOT,FOOT,ROOF,12,"[0, 0, 0]",-999,PAL1,0,R1002P
1392.94,0.009,838210,REC_END,n/a,n/a,5,-999,n/a,n/a,n/a,n/a,12,"[0, 0, 0]",-999,PAL1,0,R1002P
1392.949,0.275,838215,TEST_ORIENT,n/a,n/a,2,2,DESK,GRAPE,GRAPE,DESK,12,"[0, 0, 0]",-999,PAL1,0,R1002P
1393.848,0.0,838664,REC_START,n/a,n/a,2,-999,n/a,GRAPE,n/a,n/a,12,"[0, 0, 0]",-999,PAL1,0,R1002P
1393.848,4.0,838664,TEST_PROBE,n/a,wordpools/wordpool_EN.txt,2,2,DESK,GRAPE,GRAPE,DESK,12,"[0, 0, 0]",-999,PAL1,0,R1002P
1395.086,3.779,839283,REC_EVENT,1.238,n/a,2,2,DESK,GRAPE,GRAPE,DESK,12,"[0, 0, 0]",-999,PAL1,0,R1002P
1398.865,0.017,841172,REC_END,n/a,n/a,2,-999,n/a,n/a,n/a,n/a,12,"[0, 0, 0]",-999,PAL1,0,R1002P
1398.882,0.275,841181,TEST_ORIENT,n/a,n/a,1,3,TEETH,WAVE,WAVE,TEETH,12,"[0, 0, 0]",-999,PAL1,0,R1002P
1399.883,4.0,841681,TEST_PROBE,n/a,wordpools/wordpool_EN.txt,1,3,TEETH,WAVE,WAVE,TEETH,12,"[0, 0, 0]",-999,PAL1,0,R1002P
1399.883,1.894,841681,REC_START,n/a,n/a,1,-999,n/a,WAVE,n/a,n/a,12,"[0, 0, 0]",-999,PAL1,0,R1002P
1401.777,3.124,842628,REC_EVENT,1.894,n/a,1,3,TEETH,WAVE,WAVE,TEETH,12,"[0, 0, 0]",-999,PAL1,0,R1002P
1404.901,0.017,844190,REC_END,n/a,n/a,1,-999,n/a,n/a,n/a,n/a,12,"[0, 0, 0]",-999,PAL1,0,R1002P
1404.918,0.275,844199,TEST_ORIENT,n/a,n/a,6,4,VEST,BOAT,SHIP,VEST,12,"[0, 0, 0]",-999,PAL1,0,R1002P
1405.717,4.0,844598,TEST_PROBE,n/a,wordpools/wordpool_EN.txt,6,4,VEST,BOAT,SHIP,VEST,12,"[0, 0, 0]",-999,PAL1,0,R1002P
1405.717,1.372,844598,REC_START,n/a,n/a,6,-999,n/a,BOAT,n/a,n/a,12,"[0, 0, 0]",-999,PAL1,0,R1002P
1407.089,3.645,845284,REC_EVENT,1.372,n/a,6,4,VEST,BOAT,SHIP,VEST,12,"[0, 0, 0]",-999,PAL1,0,R1002P
1410.734,0.017,847107,REC_END,n/a,n/a,6,-999,n/a,n/a,n/a,n/a,12,"[0, 0, 0]",-999,PAL1,0,R1002P
1410.751,0.275,847115,TEST_ORIENT,n/a,n/a,3,5,GOAT,HOOF,GOAT,HOOF,12,"[0, 0, 0]",-999,PAL1,0,R1002P
1411.668,4.0,847574,TEST_PROBE,n/a,wordpools/wordpool_EN.txt,3,5,GOAT,HOOF,GOAT,HOOF,12,"[0, 0, 0]",-999,PAL1,0,R1002P
1411.669,2.508,847574,REC_START,n/a,n/a,3,-999,n/a,HOOF,n/a,n/a,12,"[0, 0, 0]",-999,PAL1,0,R1002P
1414.177,1.0,848828,REC_EVENT,2.508,n/a,3,5,GOAT,HOOF,GOAT,HOOF,12,"[0, 0, 0]",-999,PAL1,0,R1002P
1415.177,1.5,849328,REC_EVENT,3.508,n/a,3,5,GOAT,<>,GOAT,HOOF,12,"[0, 0, 0]",-999,PAL1,0,R1002P
1416.677,0.009,850078,REC_END,n/a,n/a,3,-999,n/a,n/a,n/a,n/a,12,"[0, 0, 0]",-999,PAL1,0,R1002P
1416.686,0.275,850082,TEST_ORIENT,n/a,n/a,4,6,JUICE,TOOL,TOOL,JUICE,12,"[0, 0, 0]",-999,PAL1,0,R1002P
1417.669,4.0,850574,TEST_PROBE,n/a,wordpools/wordpool_EN.txt,4,6,JUICE,TOOL,TOOL,JUICE,12,"[0, 0, 0]",-999,PAL1,0,R1002P
1417.67,1.57,850574,REC_START,n/a,n/a,4,-999,n/a,TOOL,n/a,n/a,12,"[0, 0, 0]",-999,PAL1,0,R1002P
1419.24,3.438,851359,REC_EVENT,1.57,n/a,4,6,JUICE,TOOL,TOOL,JUICE,12,"[0, 0, 0]",-999,PAL1,0,R1002P
1422.678,2.245,853078,REC_END,n/a,n/a,4,-999,n/a,n/a,n/a,n/a,12,"[0, 0, 0]",-999,PAL1,0,R1002P
1424.923,10.467,854201,ENCODING_START,n/a,n/a,0,-999,n/a,n/a,n/a,n/a,13,"[0, 0, 0]",-999,PAL1,0,R1002P
1435.39,0.275,859434,STUDY_ORIENT,n/a,n/a,1,1,STORM,STAR,STORM,STAR,13,"[0, 0, 0]",-999,PAL1,0,R1002P
1436.207,4.0,859842,STUDY_PAIR,n/a,wordpools/wordpool_EN.txt,1,1,STORM,STAR,STORM,STAR,13,"[0, 0, 0]",-999,PAL1,0,R1002P
1441.225,0.275,862351,STUDY_ORIENT,n/a,n/a,2,2,SMILE,n/a,SQUARE,SMILE,13,"[0, 0, 0]",-999,PAL1,0,R1002P
1442.058,4.0,862768,STUDY_PAIR,n/a,wordpools/wordpool_EN.txt,2,2,SMILE,n/a,SQUARE,SMILE,13,"[0, 0, 0]",-999,PAL1,0,R1002P
1447.076,0.275,865277,STUDY_ORIENT,n/a,n/a,3,3,NEST,ROOM,NEST,ROOM,13,"[0, 0, 0]",-999,PAL1,0,R1002P
1447.976,4.0,865727,STUDY_PAIR,n/a,wordpools/wordpool_EN.txt,3,3,NEST,ROOM,NEST,ROOM,13,"[0, 0, 0]",-999,PAL1,0,R1002P
1452.994,0.275,868235,STUDY_ORIENT,n/a,n/a,4,4,RAT,HOSE,RAT,HOSE,13,"[0, 0, 0]",-999,PAL1,0,R1002P
1453.927,4.0,868702,STUDY_PAIR,n/a,wordpools/wordpool_EN.txt,4,4,RAT,HOSE,RAT,HOSE,13,"[0, 0, 0]",-999,PAL1,0,R1002P
1458.945,0.275,871211,STUDY_ORIENT,n/a,n/a,5,5,CROWN,n/a,CROWN,STEM,13,"[0, 0, 0]",-999,PAL1,0,R1002P
1459.928,4.0,871702,STUDY_PAIR,n/a,wordpools/wordpool_EN.txt,5,5,CROWN,n/a,CROWN,STEM,13,"[0, 0, 0]",-999,PAL1,0,R1002P
1464.946,0.275,874211,STUDY_ORIENT,n/a,n/a,6,6,STICK,COW,STICK,COW,13,"[0, 0, 0]",-999,PAL1,0,R1002P
1465.896,4.0,874686,STUDY_PAIR,n/a,wordpools/wordpool_EN.txt,6,6,STICK,COW,STICK,COW,13,"[0, 0, 0]",-999,PAL1,0,R1002P
1469.897,1.0,876686,START,n/a,n/a,-999,-999,n/a,n/a,n/a,n/a,13,"[-999, -999, -999]",-999,PAL1,0,R1002P
1470.897,0.017,877186,MATH_START,n/a,n/a,-999,-999,n/a,n/a,n/a,n/a,13,"[0, 0, 0]",-999,PAL1,0,R1002P
1470.914,4.933,877195,PROB,4.904,n/a,-999,-999,n/a,n/a,n/a,n/a,13,"[7, 6, 4]",17,PAL1,0,R1002P
1475.847,3.052,879661,PROB,3.027,n/a,-999,-999,n/a,n/a,n/a,n/a,13,"[5, 1, 3]",9,PAL1,0,R1002P
1478.899,5.051,881187,PROB,5.016,n/a,-999,-999,n/a,n/a,n/a,n/a,13,"[3, 5, 3]",11,PAL1,0,R1002P
1483.95,3.517,883713,PROB,3.493,n/a,-999,-999,n/a,n/a,n/a,n/a,13,"[4, 2, 8]",14,PAL1,0,R1002P
1487.467,2.744,885471,PROB,2.744,n/a,-999,-999,n/a,n/a,n/a,n/a,13,"[1, 9, 1]",11,PAL1,0,R1002P
1490.211,0.007,886843,STOP,n/a,n/a,-999,-999,n/a,n/a,n/a,n/a,13,"[-999, -999, -999]",-999,PAL1,0,R1002P
1490.218,0.0,886846,TEST_START,n/a,n/a,-999,-999,n/a,n/a,n/a,n/a,13,"[0, 0, 0]",-999,PAL1,0,R1002P
1490.218,0.016,886846,MATH_END,n/a,n/a,-999,-999,n/a,n/a,n/a,n/a,13,"[0, 0, 0]",-999,PAL1,0,R1002P
1490.234,0.275,886854,TEST_ORIENT,n/a,n/a,1,1,STORM,STAR,STORM,STAR,13,"[0, 0, 0]",-999,PAL1,0,R1002P
1491.034,4.0,887254,TEST_PROBE,n/a,wordpools/wordpool_EN.txt,1,1,STORM,STAR,STORM,STAR,13,"[0, 0, 0]",-999,PAL1,0,R1002P
1491.035,1.213,887255,REC_START,n/a,n/a,1,-999,n/a,STAR,n/a,n/a,13,"[0, 0, 0]",-999,PAL1,0,R1002P
1492.248,3.795,887861,REC_EVENT,1.213,n/a,1,1,STORM,STAR,STORM,STAR,13,"[0, 0, 0]",-999,PAL1,0,R1002P
1496.043,0.009,889759,REC_END,n/a,n/a,1,-999,n/a,n/a,n/a,n/a,13,"[0, 0, 0]",-999,PAL1,0,R1002P
1496.052,0.275,889763,TEST_ORIENT,n/a,n/a,2,2,SMILE,n/a,SQUARE,SMILE,13,"[0, 0, 0]",-999,PAL1,0,R1002P
1496.936,4.0,890205,TEST_PROBE,n/a,wordpools/wordpool_EN.txt,2,2,SMILE,n/a,SQUARE,SMILE,13,"[0, 0, 0]",-999,PAL1,0,R1002P
1496.936,5.015,890205,REC_START,n/a,n/a,2,-999,n/a,n/a,n/a,n/a,13,"[0, 0, 0]",-999,PAL1,0,R1002P
1501.951,0.002,892713,REC_EVENT,5.015,n/a,2,2,SMILE,<>,SQUARE,SMILE,13,"[0, 0, 0]",-999,PAL1,0,R1002P
1501.953,0.017,892714,REC_END,n/a,n/a,2,-999,n/a,n/a,n/a,n/a,13,"[0, 0, 0]",-999,PAL1,0,R1002P
1501.97,0.275,892722,TEST_ORIENT,n/a,n/a,3,3,NEST,ROOM,NEST,ROOM,13,"[0, 0, 0]",-999,PAL1,0,R1002P
1502.769,4.0,893122,TEST_PROBE,n/a,wordpools/wordpool_EN.txt,3,3,NEST,ROOM,NEST,ROOM,13,"[0, 0, 0]",-999,PAL1,0,R1002P
1502.77,2.098,893122,REC_START,n/a,n/a,3,-999,n/a,ROOM,n/a,n/a,13,"[0, 0, 0]",-999,PAL1,0,R1002P
1504.868,2.918,894171,REC_EVENT,2.098,n/a,3,3,NEST,ROOM,NEST,ROOM,13,"[0, 0, 0]",-999,PAL1,0,R1002P
1507.786,0.017,895630,REC_END,n/a,n/a,3,-999,n/a,n/a,n/a,n/a,13,"[0, 0, 0]",-999,PAL1,0,R1002P
1507.803,0.275,895638,TEST_ORIENT,n/a,n/a,4,4,RAT,HOSE,RAT,HOSE,13,"[0, 0, 0]",-999,PAL1,0,R1002P
1508.72,4.0,896097,TEST_PROBE,n/a,wordpools/wordpool_EN.txt,4,4,RAT,HOSE,RAT,HOSE,13,"[0, 0, 0]",-999,PAL1,0,R1002P
1508.721,2.429,896097,REC_START,n/a,n/a,4,-999,n/a,HOSE,n/a,n/a,13,"[0, 0, 0]",-999,PAL1,0,R1002P
1511.15,2.579,897312,REC_EVENT,2.429,n/a,4,4,RAT,HOSE,RAT,HOSE,13,"[0, 0, 0]",-999,PAL1,0,R1002P
1513.729,0.009,898601,REC_END,n/a,n/a,4,-999,n/a,n/a,n/a,n/a,13,"[0, 0, 0]",-999,PAL1,0,R1002P
1513.738,0.275,898606,TEST_ORIENT,n/a,n/a,5,5,CROWN,n/a,CROWN,STEM,13,"[0, 0, 0]",-999,PAL1,0,R1002P
1514.738,4.0,899106,TEST_PROBE,n/a,wordpools/wordpool_EN.txt,5,5,CROWN,n/a,CROWN,STEM,13,"[0, 0, 0]",-999,PAL1,0,R1002P
1514.738,5.017,899106,REC_START,n/a,n/a,5,-999,n/a,n/a,n/a,n/a,13,"[0, 0, 0]",-999,PAL1,0,R1002P
1519.755,0.004,901614,REC_END,n/a,n/a,5,-999,n/a,n/a,n/a,n/a,13,"[0, 0, 0]",-999,PAL1,0,R1002P
1519.759,0.013,901616,REC_EVENT,5.021,n/a,5,5,CROWN,<>,CROWN,STEM,13,"[0, 0, 0]",-999,PAL1,0,R1002P
1519.772,0.275,901623,TEST_ORIENT,n/a,n/a,6,6,STICK,COW,STICK,COW,13,"[0, 0, 0]",-999,PAL1,0,R1002P
1520.606,4.0,902040,TEST_PROBE,n/a,wordpools/wordpool_EN.txt,6,6,STICK,COW,STICK,COW,13,"[0, 0, 0]",-999,PAL1,0,R1002P
1520.607,1.723,902040,REC_START,n/a,n/a,6,-999,n/a,COW,n/a,n/a,13,"[0, 0, 0]",-999,PAL1,0,R1002P
1522.33,3.277,902902,REC_EVENT,1.723,n/a,6,6,STICK,COW,STICK,COW,13,"[0, 0, 0]",-999,PAL1,0,R1002P
1525.607,2.059,904540,REC_END,n/a,n/a,6,-999,n/a,n/a,n/a,n/a,13,"[0, 0, 0]",-999,PAL1,0,R1002P
1527.666,10.444,905569,ENCODING_START,n/a,n/a,0,-999,n/a,n/a,n/a,n/a,14,"[0, 0, 0]",-999,PAL1,0,R1002P
1538.11,0.275,910791,STUDY_ORIENT,n/a,n/a,1,5,CHIEF,GATE,GATE,CHIEF,14,"[0, 0, 0]",-999,PAL1,0,R1002P
1539.127,4.0,911300,STUDY_PAIR,n/a,wordpools/wordpool_EN.txt,1,5,CHIEF,GATE,GATE,CHIEF,14,"[0, 0, 0]",-999,PAL1,0,R1002P
1544.161,0.275,913816,STUDY_ORIENT,n/a,n/a,2,6,SPEAR,LEAF,SPEAR,LEAF,14,"[0, 0, 0]",-999,PAL1,0,R1002P
1544.978,4.0,914225,STUDY_PAIR,n/a,wordpools/wordpool_EN.txt,2,6,SPEAR,LEAF,SPEAR,LEAF,14,"[0, 0, 0]",-999,PAL1,0,R1002P
1549.996,0.275,916734,STUDY_ORIENT,n/a,n/a,3,1,PET,FAN,PET,FAN,14,"[0, 0, 0]",-999,PAL1,0,R1002P
1550.878,4.0,917175,STUDY_PAIR,n/a,wordpools/wordpool_EN.txt,3,1,PET,FAN,PET,FAN,14,"[0, 0, 0]",-999,PAL1,0,R1002P
1555.897,0.275,919684,STUDY_ORIENT,n/a,n/a,4,2,STRAW,CROWN,LAMP,STRAW,14,"[0, 0, 0]",-999,PAL1,0,R1002P
1556.879,4.0,920175,STUDY_PAIR,n/a,wordpools/wordpool_EN.txt,4,2,STRAW,CROWN,LAMP,STRAW,14,"[0, 0, 0]",-999,PAL1,0,R1002P
1561.898,0.275,922684,STUDY_ORIENT,n/a,n/a,5,3,MAIL,n/a,LAND,MAIL,14,"[0, 0, 0]",-999,PAL1,0,R1002P
1562.781,4.0,923126,STUDY_PAIR,n/a,wordpools/wordpool_EN.txt,5,3,MAIL,n/a,LAND,MAIL,14,"[0, 0, 0]",-999,PAL1,0,R1002P
1567.815,0.275,925643,STUDY_ORIENT,n/a,n/a,6,4,CLOCK,PIE,PIE,CLOCK,14,"[0, 0, 0]",-999,PAL1,0,R1002P
1568.748,4.0,926109,STUDY_PAIR,n/a,wordpools/wordpool_EN.txt,6,4,CLOCK,PIE,PIE,CLOCK,14,"[0, 0, 0]",-999,PAL1,0,R1002P
1572.749,1.0,928110,START,n/a,n/a,-999,-999,n/a,n/a,n/a,n/a,14,"[-999, -999, -999]",-999,PAL1,0,R1002P
1573.749,0.017,928610,MATH_START,n/a,n/a,-999,-999,n/a,n/a,n/a,n/a,14,"[0, 0, 0]",-999,PAL1,0,R1002P
1573.766,4.352,928618,PROB,4.317,n/a,-999,-999,n/a,n/a,n/a,n/a,14,"[1, 6, 7]",14,PAL1,0,R1002P
1578.118,5.633,930794,PROB,5.612,n/a,-999,-999,n/a,n/a,n/a,n/a,14,"[7, 5, 6]",18,PAL1,0,R1002P
1583.751,4.436,933610,PROB,4.412,n/a,-999,-999,n/a,n/a,n/a,n/a,14,"[4, 1, 2]",7,PAL1,0,R1002P
1588.187,3.834,935828,PROB,3.8,n/a,-999,-999,n/a,n/a,n/a,n/a,14,"[8, 3, 5]",16,PAL1,0,R1002P
1592.021,3.645,937745,PROB,3.645,n/a,-999,-999,n/a,n/a,n/a,n/a,14,"[2, 5, 4]",11,PAL1,0,R1002P
1595.666,0.004,939568,STOP,n/a,n/a,-999,-999,n/a,n/a,n/a,n/a,14,"[-999, -999, -999]",-999,PAL1,0,R1002P
1595.67,0.0,939570,TEST_START,n/a,n/a,-999,-999,n/a,n/a,n/a,n/a,14,"[0, 0, 0]",-999,PAL1,0,R1002P
1595.67,0.017,939570,MATH_END,n/a,n/a,-999,-999,n/a,n/a,n/a,n/a,14,"[0, 0, 0]",-999,PAL1,0,R1002P
1595.687,0.275,939578,TEST_ORIENT,n/a,n/a,3,1,PET,FAN,PET,FAN,14,"[0, 0, 0]",-999,PAL1,0,R1002P
1596.72,4.0,940095,TEST_PROBE,n/a,wordpools/wordpool_EN.txt,3,1,PET,FAN,PET,FAN,14,"[0, 0, 0]",-999,PAL1,0,R1002P
1596.721,1.258,940095,REC_START,n/a,n/a,3,-999,n/a,FAN,n/a,n/a,14,"[0, 0, 0]",-999,PAL1,0,R1002P
1597.979,3.75,940724,REC_EVENT,1.258,n/a,3,1,PET,FAN,PET,FAN,14,"[0, 0, 0]",-999,PAL1,0,R1002P
1601.729,0.009,942599,REC_END,n/a,n/a,3,-999,n/a,n/a,n/a,n/a,14,"[0, 0, 0]",-999,PAL1,0,R1002P
1601.738,0.275,942603,TEST_ORIENT,n/a,n/a,4,2,STRAW,CROWN,LAMP,STRAW,14,"[0, 0, 0]",-999,PAL1,0,R1002P
1602.705,4.0,943087,TEST_PROBE,n/a,wordpools/wordpool_EN.txt,4,2,STRAW,CROWN,LAMP,STRAW,14,"[0, 0, 0]",-999,PAL1,0,R1002P
1602.706,2.638,943087,REC_START,n/a,n/a,4,-999,n/a,CROWN,n/a,n/a,14,"[0, 0, 0]",-999,PAL1,0,R1002P
1605.344,2.378,944406,REC_EVENT,2.638,n/a,4,2,STRAW,CROWN,LAMP,STRAW,14,"[0, 0, 0]",-999,PAL1,0,R1002P
1607.722,0.017,945595,REC_END,n/a,n/a,4,-999,n/a,n/a,n/a,n/a,14,"[0, 0, 0]",-999,PAL1,0,R1002P
1607.739,0.275,945604,TEST_ORIENT,n/a,n/a,5,3,MAIL,n/a,LAND,MAIL,14,"[0, 0, 0]",-999,PAL1,0,R1002P
1608.706,4.0,946087,TEST_PROBE,n/a,wordpools/wordpool_EN.txt,5,3,MAIL,n/a,LAND,MAIL,14,"[0, 0, 0]",-999,PAL1,0,R1002P
1608.707,4.998,946088,REC_START,n/a,n/a,5,-999,n/a,n/a,n/a,n/a,14,"[0, 0, 0]",-999,PAL1,0,R1002P
1613.705,0.002,948587,REC_EVENT,4.998,n/a,5,3,MAIL,<>,LAND,MAIL,14,"[0, 0, 0]",-999,PAL1,0,R1002P
1613.707,0.017,948588,REC_END,n/a,n/a,5,-999,n/a,n/a,n/a,n/a,14,"[0, 0, 0]",-999,PAL1,0,R1002P
1613.724,0.275,948596,TEST_ORIENT,n/a,n/a,6,4,CLOCK,PIE,PIE,CLOCK,14,"[0, 0, 0]",-999,PAL1,0,R1002P
1614.674,4.0,949071,TEST_PROBE,n/a,wordpools/wordpool_EN.txt,6,4,CLOCK,PIE,PIE,CLOCK,14,"[0, 0, 0]",-999,PAL1,0,R1002P
1614.675,1.935,949072,REC_START,n/a,n/a,6,-999,n/a,PIE,n/a,n/a,14,"[0, 0, 0]",-999,PAL1,0,R1002P
1616.61,3.081,950039,REC_EVENT,1.935,n/a,6,4,CLOCK,PIE,PIE,CLOCK,14,"[0, 0, 0]",-999,PAL1,0,R1002P
1619.691,0.017,951579,REC_END,n/a,n/a,6,-999,n/a,n/a,n/a,n/a,14,"[0, 0, 0]",-999,PAL1,0,R1002P
1619.708,0.275,951588,TEST_ORIENT,n/a,n/a,1,5,CHIEF,GATE,GATE,CHIEF,14,"[0, 0, 0]",-999,PAL1,0,R1002P
1620.658,4.0,952063,TEST_PROBE,n/a,wordpools/wordpool_EN.txt,1,5,CHIEF,GATE,GATE,CHIEF,14,"[0, 0, 0]",-999,PAL1,0,R1002P
1620.659,3.756,952063,REC_START,n/a,n/a,1,-999,n/a,GATE,n/a,n/a,14,"[0, 0, 0]",-999,PAL1,0,R1002P
1624.415,1.253,953941,REC_EVENT,3.756,n/a,1,5,CHIEF,GATE,GATE,CHIEF,14,"[0, 0, 0]",-999,PAL1,0,R1002P
1625.668,0.008,954568,REC_END,n/a,n/a,1,-999,n/a,n/a,n/a,n/a,14,"[0, 0, 0]",-999,PAL1,0,R1002P
1625.676,0.275,954572,TEST_ORIENT,n/a,n/a,2,6,SPEAR,LEAF,SPEAR,LEAF,14,"[0, 0, 0]",-999,PAL1,0,R1002P
1626.611,0.0,955039,REC_START,n/a,n/a,2,-999,n/a,LEAF,n/a,n/a,14,"[0, 0, 0]",-999,PAL1,0,R1002P
1626.611,4.0,955039,TEST_PROBE,n/a,wordpools/wordpool_EN.txt,2,6,SPEAR,LEAF,SPEAR,LEAF,14,"[0, 0, 0]",-999,PAL1,0,R1002P
1628.781,2.847,956124,REC_EVENT,2.17,n/a,2,6,SPEAR,LEAF,SPEAR,LEAF,14,"[0, 0, 0]",-999,PAL1,0,R1002P
1631.628,2.118,957548,REC_END,n/a,n/a,2,-999,n/a,n/a,n/a,n/a,14,"[0, 0, 0]",-999,PAL1,0,R1002P
1633.746,10.451,958607,ENCODING_START,n/a,n/a,0,-999,n/a,n/a,n/a,n/a,15,"[0, 0, 0]",-999,PAL1,0,R1002P
1644.197,0.275,963832,STUDY_ORIENT,n/a,n/a,1,3,JEEP,KITE,KITE,JEEP,15,"[0, 0, 0]",-999,PAL1,0,R1002P
1645.181,4.0,964324,STUDY_PAIR,n/a,wordpools/wordpool_EN.txt,1,3,JEEP,KITE,KITE,JEEP,15,"[0, 0, 0]",-999,PAL1,0,R1002P
1650.215,0.275,966841,STUDY_ORIENT,n/a,n/a,2,2,EEL,SEAL,EEL,SEAL,15,"[0, 0, 0]",-999,PAL1,0,R1002P
1651.049,4.0,967258,STUDY_PAIR,n/a,wordpools/wordpool_EN.txt,2,2,EEL,SEAL,EEL,SEAL,15,"[0, 0, 0]",-999,PAL1,0,R1002P
1656.083,0.275,969774,STUDY_ORIENT,n/a,n/a,3,1,EAR,CHALK,EAR,CHALK,15,"[0, 0, 0]",-999,PAL1,0,R1002P
1656.865,4.0,970165,STUDY_PAIR,n/a,wordpools/wordpool_EN.txt,3,1,EAR,CHALK,EAR,CHALK,15,"[0, 0, 0]",-999,PAL1,0,R1002P
1661.883,0.275,972674,STUDY_ORIENT,n/a,n/a,4,6,FRUIT,JAR,FRUIT,JAR,15,"[0, 0, 0]",-999,PAL1,0,R1002P
1662.85,4.0,973158,STUDY_PAIR,n/a,wordpools/wordpool_EN.txt,4,6,FRUIT,JAR,FRUIT,JAR,15,"[0, 0, 0]",-999,PAL1,0,R1002P
1667.884,0.275,975675,STUDY_ORIENT,n/a,n/a,5,5,FARM,PIG,FARM,PIG,15,"[0, 0, 0]",-999,PAL1,0,R1002P
1668.768,4.0,976117,STUDY_PAIR,n/a,wordpools/wordpool_EN.txt,5,5,FARM,PIG,FARM,PIG,15,"[0, 0, 0]",-999,PAL1,0,R1002P
1673.802,0.275,978633,STUDY_ORIENT,n/a,n/a,6,4,STREET,n/a,CAR,STREET,15,"[0, 0, 0]",-999,PAL1,0,R1002P
1674.686,4.0,979075,STUDY_PAIR,n/a,wordpools/wordpool_EN.txt,6,4,STREET,n/a,CAR,STREET,15,"[0, 0, 0]",-999,PAL1,0,R1002P
1678.704,0.999,981084,START,n/a,n/a,-999,-999,n/a,n/a,n/a,n/a,15,"[-999, -999, -999]",-999,PAL1,0,R1002P
1679.703,0.017,981584,MATH_START,n/a,n/a,-999,-999,n/a,n/a,n/a,n/a,15,"[0, 0, 0]",-999,PAL1,0,R1002P
1679.72,4.535,981592,PROB,4.515,n/a,-999,-999,n/a,n/a,n/a,n/a,15,"[5, 7, 4]",16,PAL1,0,R1002P
1684.255,3.5,983860,PROB,3.475,n/a,-999,-999,n/a,n/a,n/a,n/a,15,"[4, 5, 3]",12,PAL1,0,R1002P
1687.755,4.768,985610,PROB,4.736,n/a,-999,-999,n/a,n/a,n/a,n/a,15,"[6, 1, 5]",12,PAL1,0,R1002P
1692.523,3.651,987993,PROB,3.632,n/a,-999,-999,n/a,n/a,n/a,n/a,15,"[5, 2, 9]",16,PAL1,0,R1002P
1696.174,3.445,989819,PROB,3.445,n/a,-999,-999,n/a,n/a,n/a,n/a,15,"[7, 1, 8]",16,PAL1,0,R1002P
1699.619,0.006,991541,STOP,n/a,n/a,-999,-999,n/a,n/a,n/a,n/a,15,"[-999, -999, -999]",-999,PAL1,0,R1002P
1699.625,0.0,991544,TEST_START,n/a,n/a,-999,-999,n/a,n/a,n/a,n/a,15,"[0, 0, 0]",-999,PAL1,0,R1002P
1699.625,0.016,991544,MATH_END,n/a,n/a,-999,-999,n/a,n/a,n/a,n/a,15,"[0, 0, 0]",-999,PAL1,0,R1002P
1699.641,0.275,991552,TEST_ORIENT,n/a,n/a,3,1,EAR,CHALK,EAR,CHALK,15,"[0, 0, 0]",-999,PAL1,0,R1002P
1700.508,4.0,991986,TEST_PROBE,n/a,wordpools/wordpool_EN.txt,3,1,EAR,CHALK,EAR,CHALK,15,"[0, 0, 0]",-999,PAL1,0,R1002P
1700.509,1.282,991986,REC_START,n/a,n/a,3,-999,n/a,CHALK,n/a,n/a,15,"[0, 0, 0]",-999,PAL1,0,R1002P
1701.791,3.726,992627,REC_EVENT,1.282,n/a,3,1,EAR,CHALK,EAR,CHALK,15,"[0, 0, 0]",-999,PAL1,0,R1002P
1705.517,0.009,994490,REC_END,n/a,n/a,3,-999,n/a,n/a,n/a,n/a,15,"[0, 0, 0]",-999,PAL1,0,R1002P
1705.526,0.275,994495,TEST_ORIENT,n/a,n/a,2,2,EEL,SEAL,EEL,SEAL,15,"[0, 0, 0]",-999,PAL1,0,R1002P
1706.426,4.0,994945,TEST_PROBE,n/a,wordpools/wordpool_EN.txt,2,2,EEL,SEAL,EEL,SEAL,15,"[0, 0, 0]",-999,PAL1,0,R1002P
1706.427,0.975,994945,REC_START,n/a,n/a,2,-999,n/a,SEAL,n/a,n/a,15,"[0, 0, 0]",-999,PAL1,0,R1002P
1707.402,4.05,995433,REC_EVENT,0.975,n/a,2,2,EEL,SEAL,EEL,SEAL,15,"[0, 0, 0]",-999,PAL1,0,R1002P
1711.452,0.008,997457,REC_END,n/a,n/a,2,-999,n/a,n/a,n/a,n/a,15,"[0, 0, 0]",-999,PAL1,0,R1002P
1711.46,0.275,997461,TEST_ORIENT,n/a,n/a,1,3,JEEP,KITE,KITE,JEEP,15,"[0, 0, 0]",-999,PAL1,0,R1002P
1712.26,4.0,997861,TEST_PROBE,n/a,wordpools/wordpool_EN.txt,1,3,JEEP,KITE,KITE,JEEP,15,"[0, 0, 0]",-999,PAL1,0,R1002P
1712.261,1.203,997862,REC_START,n/a,n/a,1,-999,n/a,KITE,n/a,n/a,15,"[0, 0, 0]",-999,PAL1,0,R1002P
1713.464,3.808,998463,REC_EVENT,1.203,n/a,1,3,JEEP,KITE,KITE,JEEP,15,"[0, 0, 0]",-999,PAL1,0,R1002P
1717.272,0.023,1000367,REC_END,n/a,n/a,1,-999,n/a,n/a,n/a,n/a,15,"[0, 0, 0]",-999,PAL1,0,R1002P
1717.295,0.275,1000379,TEST_ORIENT,n/a,n/a,6,4,STREET,n/a,CAR,STREET,15,"[0, 0, 0]",-999,PAL1,0,R1002P
1718.212,0.0,1000837,REC_START,n/a,n/a,6,-999,n/a,n/a,n/a,n/a,15,"[0, 0, 0]",-999,PAL1,0,R1002P
1718.212,4.0,1000837,TEST_PROBE,n/a,wordpools/wordpool_EN.txt,6,4,STREET,n/a,CAR,STREET,15,"[0, 0, 0]",-999,PAL1,0,R1002P
1723.227,0.002,1003345,REC_EVENT,5.015,n/a,6,4,STREET,<>,CAR,STREET,15,"[0, 0, 0]",-999,PAL1,0,R1002P
1723.229,0.017,1003346,REC_END,n/a,n/a,6,-999,n/a,n/a,n/a,n/a,15,"[0, 0, 0]",-999,PAL1,0,R1002P
1723.246,0.275,1003354,TEST_ORIENT,n/a,n/a,5,5,FARM,PIG,FARM,PIG,15,"[0, 0, 0]",-999,PAL1,0,R1002P
1724.146,4.0,1003804,TEST_PROBE,n/a,wordpools/wordpool_EN.txt,5,5,FARM,PIG,FARM,PIG,15,"[0, 0, 0]",-999,PAL1,0,R1002P
1724.147,0.974,1003805,REC_START,n/a,n/a,5,-999,n/a,PIG,n/a,n/a,15,"[0, 0, 0]",-999,PAL1,0,R1002P
1725.121,4.035,1004292,REC_EVENT,0.974,n/a,5,5,FARM,PIG,FARM,PIG,15,"[0, 0, 0]",-999,PAL1,0,R1002P
1729.156,0.008,1006309,REC_END,n/a,n/a,5,-999,n/a,n/a,n/a,n/a,15,"[0, 0, 0]",-999,PAL1,0,R1002P
1729.164,0.275,1006313,TEST_ORIENT,n/a,n/a,4,6,FRUIT,JAR,FRUIT,JAR,15,"[0, 0, 0]",-999,PAL1,0,R1002P
1730.131,4.0,1006796,TEST_PROBE,n/a,wordpools/wordpool_EN.txt,4,6,FRUIT,JAR,FRUIT,JAR,15,"[0, 0, 0]",-999,PAL1,0,R1002P
1730.132,2.326,1006797,REC_START,n/a,n/a,4,-999,n/a,JAR,n/a,n/a,15,"[0, 0, 0]",-999,PAL1,0,R1002P
1732.458,2.702,1007960,REC_EVENT,2.326,n/a,4,6,FRUIT,JAR,FRUIT,JAR,15,"[0, 0, 0]",-999,PAL1,0,R1002P
1735.16,2.395,1009311,REC_END,n/a,n/a,4,-999,n/a,n/a,n/a,n/a,15,"[0, 0, 0]",-999,PAL1,0,R1002P
1737.555,10.446,1010508,ENCODING_START,n/a,n/a,0,-999,n/a,n/a,n/a,n/a,16,"[0, 0, 0]",-999,PAL1,0,R1002P
1748.001,0.275,1015731,STUDY_ORIENT,n/a,n/a,1,1,PLANT,n/a,PLANT,LAWN,16,"[0, 0, 0]",-999,PAL1,0,R1002P
1749.018,4.0,1016239,STUDY_PAIR,n/a,wordpools/wordpool_EN.txt,1,1,PLANT,n/a,PLANT,LAWN,16,"[0, 0, 0]",-999,PAL1,0,R1002P
1754.052,0.275,1018756,STUDY_ORIENT,n/a,n/a,2,4,CHAIR,BEAN,FLAG,CHAIR,16,"[0, 0, 0]",-999,PAL1,0,R1002P
1754.834,4.0,1019147,STUDY_PAIR,n/a,wordpools/wordpool_EN.txt,2,4,CHAIR,BEAN,FLAG,CHAIR,16,"[0, 0, 0]",-999,PAL1,0,R1002P
1759.852,0.275,1021656,STUDY_ORIENT,n/a,n/a,3,3,SPRING,ELF,ELF,SPRING,16,"[0, 0, 0]",-999,PAL1,0,R1002P
1760.802,4.0,1022131,STUDY_PAIR,n/a,wordpools/wordpool_EN.txt,3,3,SPRING,ELF,ELF,SPRING,16,"[0, 0, 0]",-999,PAL1,0,R1002P
1765.82,0.275,1024640,STUDY_ORIENT,n/a,n/a,4,2,CRANE,MUD,CRANE,MUD,16,"[0, 0, 0]",-999,PAL1,0,R1002P
1766.82,4.0,1025140,STUDY_PAIR,n/a,wordpools/wordpool_EN.txt,4,2,CRANE,MUD,CRANE,MUD,16,"[0, 0, 0]",-999,PAL1,0,R1002P
1771.854,0.275,1027657,STUDY_ORIENT,n/a,n/a,5,5,BEAN,STOOL,BEAN,STOOL,16,"[0, 0, 0]",-999,PAL1,0,R1002P
1772.788,4.0,1028124,STUDY_PAIR,n/a,wordpools/wordpool_EN.txt,5,5,BEAN,STOOL,BEAN,STOOL,16,"[0, 0, 0]",-999,PAL1,0,R1002P
1777.822,0.275,1030641,STUDY_ORIENT,n/a,n/a,6,6,BEE,BOY,BOY,BEE,16,"[0, 0, 0]",-999,PAL1,0,R1002P
1778.623,4.0,1031041,STUDY_PAIR,n/a,wordpools/wordpool_EN.txt,6,6,BEE,BOY,BOY,BEE,16,"[0, 0, 0]",-999,PAL1,0,R1002P
1782.624,1.0,1033042,START,n/a,n/a,-999,-999,n/a,n/a,n/a,n/a,16,"[-999, -999, -999]",-999,PAL1,0,R1002P
1783.624,0.017,1033541,MATH_START,n/a,n/a,-999,-999,n/a,n/a,n/a,n/a,16,"[0, 0, 0]",-999,PAL1,0,R1002P
1783.641,4.016,1033550,PROB,3.986,n/a,-999,-999,n/a,n/a,n/a,n/a,16,"[4, 2, 2]",8,PAL1,0,R1002P
1787.657,7.453,1035558,PROB,7.434,n/a,-999,-999,n/a,n/a,n/a,n/a,16,"[6, 7, 8]",21,PAL1,0,R1002P
1795.11,4.501,1039284,PROB,4.469,n/a,-999,-999,n/a,n/a,n/a,n/a,16,"[7, 9, 7]",23,PAL1,0,R1002P
1799.611,4.448,1041535,PROB,4.448,n/a,-999,-999,n/a,n/a,n/a,n/a,16,"[6, 5, 6]",17,PAL1,0,R1002P
1804.059,0.002,1043758,STOP,n/a,n/a,-999,-999,n/a,n/a,n/a,n/a,16,"[-999, -999, -999]",-999,PAL1,0,R1002P
1804.061,0.0,1043759,TEST_START,n/a,n/a,-999,-999,n/a,n/a,n/a,n/a,16,"[0, 0, 0]",-999,PAL1,0,R1002P
1804.061,0.017,1043759,MATH_END,n/a,n/a,-999,-999,n/a,n/a,n/a,n/a,16,"[0, 0, 0]",-999,PAL1,0,R1002P
1804.078,0.275,1043768,TEST_ORIENT,n/a,n/a,1,1,PLANT,n/a,PLANT,LAWN,16,"[0, 0, 0]",-999,PAL1,0,R1002P
1804.877,4.0,1044167,TEST_PROBE,n/a,wordpools/wordpool_EN.txt,1,1,PLANT,n/a,PLANT,LAWN,16,"[0, 0, 0]",-999,PAL1,0,R1002P
1804.878,5.009,1044168,REC_START,n/a,n/a,1,-999,n/a,n/a,n/a,n/a,16,"[0, 0, 0]",-999,PAL1,0,R1002P
1809.887,0.0,1046672,REC_EVENT,5.009,n/a,1,1,PLANT,<>,PLANT,LAWN,16,"[0, 0, 0]",-999,PAL1,0,R1002P
1809.887,0.009,1046672,REC_END,n/a,n/a,1,-999,n/a,n/a,n/a,n/a,16,"[0, 0, 0]",-999,PAL1,0,R1002P
1809.896,0.275,1046677,TEST_ORIENT,n/a,n/a,4,2,CRANE,MUD,CRANE,MUD,16,"[0, 0, 0]",-999,PAL1,0,R1002P
1810.862,4.0,1047160,TEST_PROBE,n/a,wordpools/wordpool_EN.txt,4,2,CRANE,MUD,CRANE,MUD,16,"[0, 0, 0]",-999,PAL1,0,R1002P
1810.862,1.576,1047160,REC_START,n/a,n/a,4,-999,n/a,MUD,n/a,n/a,16,"[0, 0, 0]",-999,PAL1,0,R1002P
1812.438,3.441,1047948,REC_EVENT,1.576,n/a,4,2,CRANE,MUD,CRANE,MUD,16,"[0, 0, 0]",-999,PAL1,0,R1002P
1815.879,0.018,1049668,REC_END,n/a,n/a,4,-999,n/a,n/a,n/a,n/a,16,"[0, 0, 0]",-999,PAL1,0,R1002P
1815.897,0.275,1049677,TEST_ORIENT,n/a,n/a,3,3,SPRING,ELF,ELF,SPRING,16,"[0, 0, 0]",-999,PAL1,0,R1002P
1816.73,4.0,1050094,TEST_PROBE,n/a,wordpools/wordpool_EN.txt,3,3,SPRING,ELF,ELF,SPRING,16,"[0, 0, 0]",-999,PAL1,0,R1002P
1816.73,1.235,1050094,REC_START,n/a,n/a,3,-999,n/a,ELF,n/a,n/a,16,"[0, 0, 0]",-999,PAL1,0,R1002P
1817.965,3.782,1050711,REC_EVENT,1.235,n/a,3,3,SPRING,ELF,ELF,SPRING,16,"[0, 0, 0]",-999,PAL1,0,R1002P
1821.747,0.017,1052602,REC_END,n/a,n/a,3,-999,n/a,n/a,n/a,n/a,16,"[0, 0, 0]",-999,PAL1,0,R1002P
1821.764,0.275,1052610,TEST_ORIENT,n/a,n/a,2,4,CHAIR,BEAN,FLAG,CHAIR,16,"[0, 0, 0]",-999,PAL1,0,R1002P
1822.664,0.0,1053060,REC_START,n/a,n/a,2,-999,n/a,BEAN,n/a,n/a,16,"[0, 0, 0]",-999,PAL1,0,R1002P
1822.664,4.0,1053060,TEST_PROBE,n/a,wordpools/wordpool_EN.txt,2,4,CHAIR,BEAN,FLAG,CHAIR,16,"[0, 0, 0]",-999,PAL1,0,R1002P
1824.681,3.001,1054069,REC_EVENT,2.017,n/a,2,4,CHAIR,BEAN,FLAG,CHAIR,16,"[0, 0, 0]",-999,PAL1,0,R1002P
1827.682,0.016,1055569,REC_END,n/a,n/a,2,-999,n/a,n/a,n/a,n/a,16,"[0, 0, 0]",-999,PAL1,0,R1002P
1827.698,0.275,1055577,TEST_ORIENT,n/a,n/a,5,5,BEAN,STOOL,BEAN,STOOL,16,"[0, 0, 0]",-999,PAL1,0,R1002P
1828.516,4.0,1055986,TEST_PROBE,n/a,wordpools/wordpool_EN.txt,5,5,BEAN,STOOL,BEAN,STOOL,16,"[0, 0, 0]",-999,PAL1,0,R1002P
1828.517,0.75,1055987,REC_START,n/a,n/a,5,-999,n/a,STOOL,n/a,n/a,16,"[0, 0, 0]",-999,PAL1,0,R1002P
1829.267,1.0,1056362,REC_EVENT,0.75,n/a,5,5,BEAN,<>,BEAN,STOOL,16,"[0, 0, 0]",-999,PAL1,0,R1002P
1830.267,0.092,1056862,REC_EVENT,1.75,n/a,5,5,BEAN,<>,BEAN,STOOL,16,"[0, 0, 0]",-999,PAL1,0,R1002P
1830.359,3.166,1056908,REC_EVENT,1.842,n/a,5,5,BEAN,STOOL,BEAN,STOOL,16,"[0, 0, 0]",-999,PAL1,0,R1002P
1833.525,0.009,1058491,REC_END,n/a,n/a,5,-999,n/a,n/a,n/a,n/a,16,"[0, 0, 0]",-999,PAL1,0,R1002P
1833.534,0.275,1058495,TEST_ORIENT,n/a,n/a,6,6,BEE,BOY,BOY,BEE,16,"[0, 0, 0]",-999,PAL1,0,R1002P
1834.501,4.0,1058979,TEST_PROBE,n/a,wordpools/wordpool_EN.txt,6,6,BEE,BOY,BOY,BEE,16,"[0, 0, 0]",-999,PAL1,0,R1002P
1834.502,1.123,1058979,REC_START,n/a,n/a,6,-999,n/a,BOY,n/a,n/a,16,"[0, 0, 0]",-999,PAL1,0,R1002P
1835.625,3.901,1059541,REC_EVENT,1.123,n/a,6,6,BEE,BOY,BOY,BEE,16,"[0, 0, 0]",-999,PAL1,0,R1002P
1839.526,2.013,1061491,REC_END,n/a,n/a,6,-999,n/a,n/a,n/a,n/a,16,"[0, 0, 0]",-999,PAL1,0,R1002P
1841.539,10.448,1062497,ENCODING_START,n/a,n/a,0,-999,n/a,n/a,n/a,n/a,17,"[0, 0, 0]",-999,PAL1,0,R1002P
1851.987,0.275,1067721,STUDY_ORIENT,n/a,n/a,1,5,SNAKE,n/a,SMOKE,SNAKE,17,"[0, 0, 0]",-999,PAL1,0,R1002P
1852.988,4.0,1068222,STUDY_PAIR,n/a,wordpools/wordpool_EN.txt,1,5,SNAKE,n/a,SMOKE,SNAKE,17,"[0, 0, 0]",-999,PAL1,0,R1002P
1858.022,0.275,1070738,STUDY_ORIENT,n/a,n/a,2,2,SHELL,n/a,ARM,SHELL,17,"[0, 0, 0]",-999,PAL1,0,R1002P
1858.905,4.0,1071180,STUDY_PAIR,n/a,wordpools/wordpool_EN.txt,2,2,SHELL,n/a,ARM,SHELL,17,"[0, 0, 0]",-999,PAL1,0,R1002P
1863.923,0.275,1073689,STUDY_ORIENT,n/a,n/a,3,1,ANT,n/a,ANT,CAPE,17,"[0, 0, 0]",-999,PAL1,0,R1002P
1864.706,4.0,1074080,STUDY_PAIR,n/a,wordpools/wordpool_EN.txt,3,1,ANT,n/a,ANT,CAPE,17,"[0, 0, 0]",-999,PAL1,0,R1002P
1869.74,0.275,1076597,STUDY_ORIENT,n/a,n/a,4,4,POND,KEY,KEY,POND,17,"[0, 0, 0]",-999,PAL1,0,R1002P
1870.673,4.0,1077064,STUDY_PAIR,n/a,wordpools/wordpool_EN.txt,4,4,POND,KEY,KEY,POND,17,"[0, 0, 0]",-999,PAL1,0,R1002P
1875.691,0.275,1079572,STUDY_ORIENT,n/a,n/a,5,3,STAIR,n/a,PURSE,STAIR,17,"[0, 0, 0]",-999,PAL1,0,R1002P
1876.475,4.0,1079964,STUDY_PAIR,n/a,wordpools/wordpool_EN.txt,5,3,STAIR,n/a,PURSE,STAIR,17,"[0, 0, 0]",-999,PAL1,0,R1002P
1881.493,0.275,1082473,STUDY_ORIENT,n/a,n/a,6,6,JET,BARN,JET,BARN,17,"[0, 0, 0]",-999,PAL1,0,R1002P
1882.327,4.0,1082890,STUDY_PAIR,n/a,wordpools/wordpool_EN.txt,6,6,JET,BARN,JET,BARN,17,"[0, 0, 0]",-999,PAL1,0,R1002P
1886.345,0.999,1084899,START,n/a,n/a,-999,-999,n/a,n/a,n/a,n/a,17,"[-999, -999, -999]",-999,PAL1,0,R1002P
1887.344,0.017,1085399,MATH_START,n/a,n/a,-999,-999,n/a,n/a,n/a,n/a,17,"[0, 0, 0]",-999,PAL1,0,R1002P
1887.361,4.084,1085407,PROB,4.058,n/a,-999,-999,n/a,n/a,n/a,n/a,17,"[6, 5, 6]",17,PAL1,0,R1002P
1891.445,6.35,1087449,PROB,6.325,n/a,-999,-999,n/a,n/a,n/a,n/a,17,"[5, 2, 6]",15,PAL1,0,R1002P
1897.795,7.353,1090624,PROB,7.328,n/a,-999,-999,n/a,n/a,n/a,n/a,17,"[1, 4, 8]",13,PAL1,0,R1002P
1905.148,4.855,1094300,PROB,4.855,n/a,-999,-999,n/a,n/a,n/a,n/a,17,"[4, 3, 8]",15,PAL1,0,R1002P
1910.003,0.012,1096728,STOP,n/a,n/a,-999,-999,n/a,n/a,n/a,n/a,17,"[-999, -999, -999]",-999,PAL1,0,R1002P
1910.015,0.0,1096734,MATH_END,n/a,n/a,-999,-999,n/a,n/a,n/a,n/a,17,"[0, 0, 0]",-999,PAL1,0,R1002P
1910.015,0.017,1096734,TEST_START,n/a,n/a,-999,-999,n/a,n/a,n/a,n/a,17,"[0, 0, 0]",-999,PAL1,0,R1002P
1910.032,0.275,1096742,TEST_ORIENT,n/a,n/a,3,1,ANT,n/a,ANT,CAPE,17,"[0, 0, 0]",-999,PAL1,0,R1002P
1911.016,4.0,1097234,TEST_PROBE,n/a,wordpools/wordpool_EN.txt,3,1,ANT,n/a,ANT,CAPE,17,"[0, 0, 0]",-999,PAL1,0,R1002P
1911.016,5.015,1097234,REC_START,n/a,n/a,3,-999,n/a,n/a,n/a,n/a,17,"[0, 0, 0]",-999,PAL1,0,R1002P
1916.031,0.002,1099741,REC_EVENT,5.015,n/a,3,1,ANT,<>,ANT,CAPE,17,"[0, 0, 0]",-999,PAL1,0,R1002P
1916.033,0.017,1099742,REC_END,n/a,n/a,3,-999,n/a,n/a,n/a,n/a,17,"[0, 0, 0]",-999,PAL1,0,R1002P
1916.05,0.275,1099751,TEST_ORIENT,n/a,n/a,2,2,SHELL,n/a,ARM,SHELL,17,"[0, 0, 0]",-999,PAL1,0,R1002P
1916.866,4.0,1100159,TEST_PROBE,n/a,wordpools/wordpool_EN.txt,2,2,SHELL,n/a,ARM,SHELL,17,"[0, 0, 0]",-999,PAL1,0,R1002P
1916.866,5.02,1100159,REC_START,n/a,n/a,2,-999,n/a,n/a,n/a,n/a,17,"[0, 0, 0]",-999,PAL1,0,R1002P
1921.886,0.001,1102669,REC_END,n/a,n/a,2,-999,n/a,n/a,n/a,n/a,17,"[0, 0, 0]",-999,PAL1,0,R1002P
1921.887,0.014,1102669,REC_EVENT,5.021,n/a,2,2,SHELL,<>,ARM,SHELL,17,"[0, 0, 0]",-999,PAL1,0,R1002P
1921.901,0.275,1102676,TEST_ORIENT,n/a,n/a,5,3,STAIR,n/a,PURSE,STAIR,17,"[0, 0, 0]",-999,PAL1,0,R1002P
1922.833,4.0,1103142,TEST_PROBE,n/a,wordpools/wordpool_EN.txt,5,3,STAIR,n/a,PURSE,STAIR,17,"[0, 0, 0]",-999,PAL1,0,R1002P
1922.834,1.686,1103143,REC_START,n/a,n/a,5,-999,n/a,n/a,n/a,n/a,17,"[0, 0, 0]",-999,PAL1,0,R1002P
1924.52,3.322,1103986,REC_EVENT,1.686,n/a,5,3,STAIR,<>,PURSE,STAIR,17,"[0, 0, 0]",-999,PAL1,0,R1002P
1927.842,0.009,1105647,REC_END,n/a,n/a,5,-999,n/a,n/a,n/a,n/a,17,"[0, 0, 0]",-999,PAL1,0,R1002P
1927.851,0.275,1105651,TEST_ORIENT,n/a,n/a,4,4,POND,KEY,KEY,POND,17,"[0, 0, 0]",-999,PAL1,0,R1002P
1928.718,4.0,1106085,TEST_PROBE,n/a,wordpools/wordpool_EN.txt,4,4,POND,KEY,KEY,POND,17,"[0, 0, 0]",-999,PAL1,0,R1002P
1928.718,1.365,1106085,REC_START,n/a,n/a,4,-999,n/a,KEY,n/a,n/a,17,"[0, 0, 0]",-999,PAL1,0,R1002P
1930.083,3.652,1106767,REC_EVENT,1.365,n/a,4,4,POND,KEY,KEY,POND,17,"[0, 0, 0]",-999,PAL1,0,R1002P
1933.735,0.017,1108593,REC_END,n/a,n/a,4,-999,n/a,n/a,n/a,n/a,17,"[0, 0, 0]",-999,PAL1,0,R1002P
1933.752,0.275,1108601,TEST_ORIENT,n/a,n/a,1,5,SNAKE,n/a,SMOKE,SNAKE,17,"[0, 0, 0]",-999,PAL1,0,R1002P
1934.702,4.0,1109076,TEST_PROBE,n/a,wordpools/wordpool_EN.txt,1,5,SNAKE,n/a,SMOKE,SNAKE,17,"[0, 0, 0]",-999,PAL1,0,R1002P
1934.703,5.009,1109077,REC_START,n/a,n/a,1,-999,n/a,n/a,n/a,n/a,17,"[0, 0, 0]",-999,PAL1,0,R1002P
1939.712,0.001,1111581,REC_EVENT,5.009,n/a,1,5,SNAKE,<>,SMOKE,SNAKE,17,"[0, 0, 0]",-999,PAL1,0,R1002P
1939.713,0.007,1111582,REC_END,n/a,n/a,1,-999,n/a,n/a,n/a,n/a,17,"[0, 0, 0]",-999,PAL1,0,R1002P
1939.72,0.275,1111585,TEST_ORIENT,n/a,n/a,6,6,JET,BARN,JET,BARN,17,"[0, 0, 0]",-999,PAL1,0,R1002P
1940.67,4.0,1112060,TEST_PROBE,n/a,wordpools/wordpool_EN.txt,6,6,JET,BARN,JET,BARN,17,"[0, 0, 0]",-999,PAL1,0,R1002P
1940.672,1.452,1112061,REC_START,n/a,n/a,6,-999,n/a,BARN,n/a,n/a,17,"[0, 0, 0]",-999,PAL1,0,R1002P
1942.124,3.547,1112787,REC_EVENT,1.452,n/a,6,6,JET,BARN,JET,BARN,17,"[0, 0, 0]",-999,PAL1,0,R1002P
1945.671,2.131,1114561,REC_END,n/a,n/a,6,-999,n/a,n/a,n/a,n/a,17,"[0, 0, 0]",-999,PAL1,0,R1002P
1947.802,10.439,1115626,ENCODING_START,n/a,n/a,0,-999,n/a,n/a,n/a,n/a,18,"[0, 0, 0]",-999,PAL1,0,R1002P
1958.241,0.275,1120845,STUDY_ORIENT,n/a,n/a,1,3,PIT,BOARD,BOARD,PIT,18,"[0, 0, 0]",-999,PAL1,0,R1002P
1959.175,4.0,1121312,STUDY_PAIR,n/a,wordpools/wordpool_EN.txt,1,3,PIT,BOARD,BOARD,PIT,18,"[0, 0, 0]",-999,PAL1,0,R1002P
1964.209,0.275,1123829,STUDY_ORIENT,n/a,n/a,2,2,FLAME,FACE,FACE,FLAME,18,"[0, 0, 0]",-999,PAL1,0,R1002P
1965.009,4.0,1124229,STUDY_PAIR,n/a,wordpools/wordpool_EN.txt,2,2,FLAME,FACE,FACE,FLAME,18,"[0, 0, 0]",-999,PAL1,0,R1002P
1970.027,0.275,1126738,STUDY_ORIENT,n/a,n/a,3,5,TOAD,SLEEVE,SLEEVE,TOAD,18,"[0, 0, 0]",-999,PAL1,0,R1002P
1970.977,4.0,1127213,STUDY_PAIR,n/a,wordpools/wordpool_EN.txt,3,5,TOAD,SLEEVE,SLEEVE,TOAD,18,"[0, 0, 0]",-999,PAL1,0,R1002P
1975.995,0.275,1129722,STUDY_ORIENT,n/a,n/a,4,4,ROOT,n/a,ROOT,SIGN,18,"[0, 0, 0]",-999,PAL1,0,R1002P
1976.877,4.0,1130163,STUDY_PAIR,n/a,wordpools/wordpool_EN.txt,4,4,ROOT,n/a,ROOT,SIGN,18,"[0, 0, 0]",-999,PAL1,0,R1002P
1981.896,0.275,1132672,STUDY_ORIENT,n/a,n/a,5,1,SHOE,FUR,SHOE,FUR,18,"[0, 0, 0]",-999,PAL1,0,R1002P
1982.913,4.0,1133181,STUDY_PAIR,n/a,wordpools/wordpool_EN.txt,5,1,SHOE,FUR,SHOE,FUR,18,"[0, 0, 0]",-999,PAL1,0,R1002P
1987.947,0.275,1135697,STUDY_ORIENT,n/a,n/a,6,6,BREAD,n/a,WOOD,BREAD,18,"[0, 0, 0]",-999,PAL1,0,R1002P
1988.779,4.0,1136113,STUDY_PAIR,n/a,wordpools/wordpool_EN.txt,6,6,BREAD,n/a,WOOD,BREAD,18,"[0, 0, 0]",-999,PAL1,0,R1002P
1992.781,0.999,1138114,START,n/a,n/a,-999,-999,n/a,n/a,n/a,n/a,18,"[-999, -999, -999]",-999,PAL1,0,R1002P
1993.78,0.017,1138614,MATH_START,n/a,n/a,-999,-999,n/a,n/a,n/a,n/a,18,"[0, 0, 0]",-999,PAL1,0,R1002P
1993.797,4.001,1138622,PROB,3.981,n/a,-999,-999,n/a,n/a,n/a,n/a,18,"[1, 9, 8]",18,PAL1,0,R1002P
1997.798,11.303,1140623,PROB,11.269,n/a,-999,-999,n/a,n/a,n/a,n/a,18,"[8, 6, 9]",23,PAL1,0,R1002P
2009.101,3.709,1146274,PROB,3.709,n/a,-999,-999,n/a,n/a,n/a,n/a,18,"[4, 8, 6]",18,PAL1,0,R1002P
2012.81,0.007,1148128,STOP,n/a,n/a,-999,-999,n/a,n/a,n/a,n/a,18,"[-999, -999, -999]",-999,PAL1,0,R1002P
2012.817,0.0,1148132,MATH_END,n/a,n/a,-999,-999,n/a,n/a,n/a,n/a,18,"[0, 0, 0]",-999,PAL1,0,R1002P
2012.817,0.017,1148132,TEST_START,n/a,n/a,-999,-999,n/a,n/a,n/a,n/a,18,"[0, 0, 0]",-999,PAL1,0,R1002P
2012.834,0.275,1148140,TEST_ORIENT,n/a,n/a,5,1,SHOE,FUR,SHOE,FUR,18,"[0, 0, 0]",-999,PAL1,0,R1002P
2013.834,4.0,1148640,TEST_PROBE,n/a,wordpools/wordpool_EN.txt,5,1,SHOE,FUR,SHOE,FUR,18,"[0, 0, 0]",-999,PAL1,0,R1002P
2013.835,2.884,1148641,REC_START,n/a,n/a,5,-999,n/a,FUR,n/a,n/a,18,"[0, 0, 0]",-999,PAL1,0,R1002P
2016.719,2.124,1150083,REC_EVENT,2.884,n/a,5,1,SHOE,FUR,SHOE,FUR,18,"[0, 0, 0]",-999,PAL1,0,R1002P
2018.843,0.009,1151145,REC_END,n/a,n/a,5,-999,n/a,n/a,n/a,n/a,18,"[0, 0, 0]",-999,PAL1,0,R1002P
2018.852,0.275,1151149,TEST_ORIENT,n/a,n/a,2,2,FLAME,FACE,FACE,FLAME,18,"[0, 0, 0]",-999,PAL1,0,R1002P
2019.852,4.0,1151649,TEST_PROBE,n/a,wordpools/wordpool_EN.txt,2,2,FLAME,FACE,FACE,FLAME,18,"[0, 0, 0]",-999,PAL1,0,R1002P
2019.853,1.537,1151650,REC_START,n/a,n/a,2,-999,n/a,FACE,n/a,n/a,18,"[0, 0, 0]",-999,PAL1,0,R1002P
2021.39,3.472,1152418,REC_EVENT,1.537,n/a,2,2,FLAME,FACE,FACE,FLAME,18,"[0, 0, 0]",-999,PAL1,0,R1002P
2024.862,0.008,1154154,REC_END,n/a,n/a,2,-999,n/a,n/a,n/a,n/a,18,"[0, 0, 0]",-999,PAL1,0,R1002P
2024.87,0.275,1154158,TEST_ORIENT,n/a,n/a,1,3,PIT,BOARD,BOARD,PIT,18,"[0, 0, 0]",-999,PAL1,0,R1002P
2025.753,4.0,1154599,TEST_PROBE,n/a,wordpools/wordpool_EN.txt,1,3,PIT,BOARD,BOARD,PIT,18,"[0, 0, 0]",-999,PAL1,0,R1002P
2025.754,1.812,1154600,REC_START,n/a,n/a,1,-999,n/a,BOARD,n/a,n/a,18,"[0, 0, 0]",-999,PAL1,0,R1002P
2027.566,3.197,1155506,REC_EVENT,1.812,n/a,1,3,PIT,BOARD,BOARD,PIT,18,"[0, 0, 0]",-999,PAL1,0,R1002P
2030.763,0.008,1157104,REC_END,n/a,n/a,1,-999,n/a,n/a,n/a,n/a,18,"[0, 0, 0]",-999,PAL1,0,R1002P
2030.771,0.275,1157108,TEST_ORIENT,n/a,n/a,4,4,ROOT,n/a,ROOT,SIGN,18,"[0, 0, 0]",-999,PAL1,0,R1002P
2031.555,4.0,1157500,TEST_PROBE,n/a,wordpools/wordpool_EN.txt,4,4,ROOT,n/a,ROOT,SIGN,18,"[0, 0, 0]",-999,PAL1,0,R1002P
2031.556,5.008,1157501,REC_START,n/a,n/a,4,-999,n/a,n/a,n/a,n/a,18,"[0, 0, 0]",-999,PAL1,0,R1002P
2036.564,0.001,1160005,REC_END,n/a,n/a,4,-999,n/a,n/a,n/a,n/a,18,"[0, 0, 0]",-999,PAL1,0,R1002P
2036.565,0.008,1160005,REC_EVENT,5.009,n/a,4,4,ROOT,<>,ROOT,SIGN,18,"[0, 0, 0]",-999,PAL1,0,R1002P
2036.573,0.275,1160009,TEST_ORIENT,n/a,n/a,3,5,TOAD,SLEEVE,SLEEVE,TOAD,18,"[0, 0, 0]",-999,PAL1,0,R1002P
2037.423,4.0,1160434,TEST_PROBE,n/a,wordpools/wordpool_EN.txt,3,5,TOAD,SLEEVE,SLEEVE,TOAD,18,"[0, 0, 0]",-999,PAL1,0,R1002P
2037.424,1.618,1160435,REC_START,n/a,n/a,3,-999,n/a,SLEEVE,n/a,n/a,18,"[0, 0, 0]",-999,PAL1,0,R1002P
2039.042,3.391,1161244,REC_EVENT,1.618,n/a,3,5,TOAD,SLEEVE,SLEEVE,TOAD,18,"[0, 0, 0]",-999,PAL1,0,R1002P
2042.433,0.008,1162939,REC_END,n/a,n/a,3,-999,n/a,n/a,n/a,n/a,18,"[0, 0, 0]",-999,PAL1,0,R1002P
2042.441,0.275,1162943,TEST_ORIENT,n/a,n/a,6,6,BREAD,n/a,WOOD,BREAD,18,"[0, 0, 0]",-999,PAL1,0,R1002P
2043.241,4.0,1163343,TEST_PROBE,n/a,wordpools/wordpool_EN.txt,6,6,BREAD,n/a,WOOD,BREAD,18,"[0, 0, 0]",-999,PAL1,0,R1002P
2043.242,5.027,1163343,REC_START,n/a,n/a,6,-999,n/a,n/a,n/a,n/a,18,"[0, 0, 0]",-999,PAL1,0,R1002P
2048.269,0.0,1165857,REC_EVENT,5.027,n/a,6,6,BREAD,<>,WOOD,BREAD,18,"[0, 0, 0]",-999,PAL1,0,R1002P
2048.269,2.254,1165857,REC_END,n/a,n/a,6,-999,n/a,n/a,n/a,n/a,18,"[0, 0, 0]",-999,PAL1,0,R1002P
2050.523,10.438,1166984,ENCODING_START,n/a,n/a,0,-999,n/a,n/a,n/a,n/a,19,"[0, 0, 0]",-999,PAL1,0,R1002P
2060.961,0.275,1172202,STUDY_ORIENT,n/a,n/a,1,3,DRUM,n/a,SKI,DRUM,19,"[0, 0, 0]",-999,PAL1,0,R1002P
2061.928,4.0,1172686,STUDY_PAIR,n/a,wordpools/wordpool_EN.txt,1,3,DRUM,n/a,SKI,DRUM,19,"[0, 0, 0]",-999,PAL1,0,R1002P
