 onset,duration,sample,trial_type,response_time,stim_file,serialpos,probepos,probe_word,resp_word,study_1,study_2,list,test,answer,experiment,session,subject
0.0,65.575,7168,SESS_START,n/a,n/a,-999,-999,n/a,n/a,n/a,n/a,-999,"[0, 0, 0]",-999,PAL1,1,R1001P
65.575,1.017,39954,START,n/a,n/a,-999,-999,n/a,n/a,n/a,n/a,-1,"[-999, -999, -999]",-999,PAL1,1,R1001P
66.592,6.919,40463,PROB,6.885,n/a,-999,-999,n/a,n/a,n/a,n/a,-1,"[8, 4, 8]",12,PAL1,1,R1001P
73.511,5.116,43922,PROB,5.093,n/a,-999,-999,n/a,n/a,n/a,n/a,-1,"[5, 4, 2]",12,PAL1,1,R1001P
78.627,3.602,46480,PROB,3.57,n/a,-999,-999,n/a,n/a,n/a,n/a,-1,"[1, 2, 5]",8,PAL1,1,R1001P
82.229,7.8,48281,PROB,7.8,n/a,-999,-999,n/a,n/a,n/a,n/a,-1,"[5, 6, 2]",13,PAL1,1,R1001P
90.029,43.72,52180,STOP,n/a,n/a,-999,-999,n/a,n/a,n/a,n/a,-1,"[-999, -999, -999]",-999,PAL1,1,R1001P
133.749,10.442,74039,ENCODING_START,n/a,n/a,0,-999,n/a,n/a,n/a,n/a,1,"[0, 0, 0]",-999,PAL1,1,R1001P
144.191,0.275,79260,STUDY_ORIENT,n/a,n/a,1,3,JET,COTTON,JET,NAIL,1,"[0, 0, 0]",-999,PAL1,1,R1001P
145.191,4.0,79760,STUDY_PAIR,n/a,wordpools/wordpool_EN.txt,1,3,JET,COTTON,JET,NAIL,1,"[0, 0, 0]",-999,PAL1,1,R1001P
150.209,0.275,82269,STUDY_ORIENT,n/a,n/a,2,6,OAK,n/a,OAK,TRUCK,1,"[0, 0, 0]",-999,PAL1,1,R1001P
151.225,4.0,82777,STUDY_PAIR,n/a,wordpools/wordpool_EN.txt,2,6,OAK,n/a,OAK,TRUCK,1,"[0, 0, 0]",-999,PAL1,1,R1001P
156.227,0.275,85278,STUDY_ORIENT,n/a,n/a,3,5,LAND,n/a,LAND,PALM,1,"[0, 0, 0]",-999,PAL1,1,R1001P
157.094,4.0,85711,STUDY_PAIR,n/a,wordpools/wordpool_EN.txt,3,5,LAND,n/a,LAND,PALM,1,"[0, 0, 0]",-999,PAL1,1,R1001P
162.128,0.275,88228,STUDY_ORIENT,n/a,n/a,4,4,PIPE,n/a,ROOT,PIPE,1,"[0, 0, 0]",-999,PAL1,1,R1001P
162.911,4.0,88620,STUDY_PAIR,n/a,wordpools/wordpool_EN.txt,4,4,PIPE,n/a,ROOT,PIPE,1,"[0, 0, 0]",-999,PAL1,1,R1001P
167.929,0.275,91128,STUDY_ORIENT,n/a,n/a,5,1,SAIL,SHIP,SAIL,YARD,1,"[0, 0, 0]",-999,PAL1,1,R1001P
168.912,4.0,91620,STUDY_PAIR,n/a,wordpools/wordpool_EN.txt,5,1,SAIL,SHIP,SAIL,YARD,1,"[0, 0, 0]",-999,PAL1,1,R1001P
173.93,0.275,94129,STUDY_ORIENT,n/a,n/a,6,2,SHIELD,STONE,SHIELD,STONE,1,"[0, 0, 0]",-999,PAL1,1,R1001P
174.847,4.0,94587,STUDY_PAIR,n/a,wordpools/wordpool_EN.txt,6,2,SHIELD,STONE,SHIELD,STONE,1,"[0, 0, 0]",-999,PAL1,1,R1001P
178.865,0.999,96596,START,n/a,n/a,-999,-999,n/a,n/a,n/a,n/a,1,"[-999, -999, -999]",-999,PAL1,1,R1001P
179.864,0.017,97096,MATH_START,n/a,n/a,-999,-999,n/a,n/a,n/a,n/a,1,"[0, 0, 0]",-999,PAL1,1,R1001P
179.881,6.185,97104,PROB,6.164,n/a,-999,-999,n/a,n/a,n/a,n/a,1,"[9, 4, 1]",14,PAL1,1,R1001P
186.066,5.901,100196,PROB,5.867,n/a,-999,-999,n/a,n/a,n/a,n/a,1,"[4, 9, 8]",21,PAL1,1,R1001P
191.967,9.934,103147,PROB,9.934,n/a,-999,-999,n/a,n/a,n/a,n/a,1,"[3, 8, 3]",14,PAL1,1,R1001P
201.901,0.018,108113,STOP,n/a,n/a,-999,-999,n/a,n/a,n/a,n/a,1,"[-999, -999, -999]",-999,PAL1,1,R1001P
201.919,0.0,108122,MATH_END,n/a,n/a,-999,-999,n/a,n/a,n/a,n/a,1,"[0, 0, 0]",-999,PAL1,1,R1001P
201.919,0.017,108122,TEST_START,n/a,n/a,-999,-999,n/a,n/a,n/a,n/a,1,"[0, 0, 0]",-999,PAL1,1,R1001P
201.936,0.275,108131,TEST_ORIENT,n/a,n/a,5,1,SAIL,SHIP,SAIL,YARD,1,"[0, 0, 0]",-999,PAL1,1,R1001P
202.836,4.0,108581,TEST_PROBE,n/a,wordpools/wordpool_EN.txt,5,1,SAIL,SHIP,SAIL,YARD,1,"[0, 0, 0]",-999,PAL1,1,R1001P
202.836,4.415,108581,REC_START,n/a,n/a,5,-999,n/a,SHIP,n/a,n/a,1,"[0, 0, 0]",-999,PAL1,1,R1001P
207.251,0.602,110788,REC_EVENT,4.415,n/a,5,1,SAIL,SHIP,SAIL,YARD,1,"[0, 0, 0]",-999,PAL1,1,R1001P
207.853,0.017,111089,REC_END,n/a,n/a,5,-999,n/a,n/a,n/a,n/a,1,"[0, 0, 0]",-999,PAL1,1,R1001P
207.87,0.275,111098,TEST_ORIENT,n/a,n/a,6,2,SHIELD,STONE,SHIELD,STONE,1,"[0, 0, 0]",-999,PAL1,1,R1001P
208.87,4.0,111598,TEST_PROBE,n/a,wordpools/wordpool_EN.txt,6,2,SHIELD,STONE,SHIELD,STONE,1,"[0, 0, 0]",-999,PAL1,1,R1001P
208.871,2.089,111598,REC_START,n/a,n/a,6,-999,n/a,STONE,n/a,n/a,1,"[0, 0, 0]",-999,PAL1,1,R1001P
210.96,2.919,112643,REC_EVENT,2.089,n/a,6,2,SHIELD,STONE,SHIELD,STONE,1,"[0, 0, 0]",-999,PAL1,1,R1001P
213.879,0.009,114102,REC_END,n/a,n/a,6,-999,n/a,n/a,n/a,n/a,1,"[0, 0, 0]",-999,PAL1,1,R1001P
213.888,0.275,114107,TEST_ORIENT,n/a,n/a,1,3,JET,COTTON,JET,NAIL,1,"[0, 0, 0]",-999,PAL1,1,R1001P
214.771,4.0,114548,TEST_PROBE,n/a,wordpools/wordpool_EN.txt,1,3,JET,COTTON,JET,NAIL,1,"[0, 0, 0]",-999,PAL1,1,R1001P
214.772,3.202,114549,REC_START,n/a,n/a,1,-999,n/a,COTTON,n/a,n/a,1,"[0, 0, 0]",-999,PAL1,1,R1001P
217.974,1.806,116150,REC_EVENT,3.202,n/a,1,3,JET,COTTON,JET,NAIL,1,"[0, 0, 0]",-999,PAL1,1,R1001P
219.78,0.009,117052,REC_END,n/a,n/a,1,-999,n/a,n/a,n/a,n/a,1,"[0, 0, 0]",-999,PAL1,1,R1001P
219.789,0.275,117057,TEST_ORIENT,n/a,n/a,4,4,PIPE,n/a,ROOT,PIPE,1,"[0, 0, 0]",-999,PAL1,1,R1001P
220.688,4.0,117506,TEST_PROBE,n/a,wordpools/wordpool_EN.txt,4,4,PIPE,n/a,ROOT,PIPE,1,"[0, 0, 0]",-999,PAL1,1,R1001P
220.689,5.008,117507,REC_START,n/a,n/a,4,-999,n/a,n/a,n/a,n/a,1,"[0, 0, 0]",-999,PAL1,1,R1001P
225.697,0.001,120011,REC_END,n/a,n/a,4,-999,n/a,n/a,n/a,n/a,1,"[0, 0, 0]",-999,PAL1,1,R1001P
225.698,0.008,120011,REC_EVENT,5.009,n/a,4,4,PIPE,<>,ROOT,PIPE,1,"[0, 0, 0]",-999,PAL1,1,R1001P
225.706,0.275,120015,TEST_ORIENT,n/a,n/a,3,5,LAND,n/a,LAND,PALM,1,"[0, 0, 0]",-999,PAL1,1,R1001P
226.49,4.0,120407,TEST_PROBE,n/a,wordpools/wordpool_EN.txt,3,5,LAND,n/a,LAND,PALM,1,"[0, 0, 0]",-999,PAL1,1,R1001P
226.491,5.003,120408,REC_START,n/a,n/a,3,-999,n/a,n/a,n/a,n/a,1,"[0, 0, 0]",-999,PAL1,1,R1001P
231.494,0.004,122909,REC_EVENT,5.003,n/a,3,5,LAND,<>,LAND,PALM,1,"[0, 0, 0]",-999,PAL1,1,R1001P
231.498,0.01,122911,REC_END,n/a,n/a,3,-999,n/a,n/a,n/a,n/a,1,"[0, 0, 0]",-999,PAL1,1,R1001P
231.508,0.275,122916,TEST_ORIENT,n/a,n/a,2,6,OAK,n/a,OAK,TRUCK,1,"[0, 0, 0]",-999,PAL1,1,R1001P
232.441,4.0,123383,TEST_PROBE,n/a,wordpools/wordpool_EN.txt,2,6,OAK,n/a,OAK,TRUCK,1,"[0, 0, 0]",-999,PAL1,1,R1001P
232.442,1.83,123383,REC_START,n/a,n/a,2,-999,n/a,n/a,n/a,n/a,1,"[0, 0, 0]",-999,PAL1,1,R1001P
234.272,3.177,124298,REC_EVENT,1.83,n/a,2,6,OAK,<>,OAK,TRUCK,1,"[0, 0, 0]",-999,PAL1,1,R1001P
237.449,2.259,125887,REC_END,n/a,n/a,2,-999,n/a,n/a,n/a,n/a,1,"[0, 0, 0]",-999,PAL1,1,R1001P
239.708,10.454,127016,ENCODING_START,n/a,n/a,0,-999,n/a,n/a,n/a,n/a,2,"[0, 0, 0]",-999,PAL1,1,R1001P
250.162,0.275,132243,STUDY_ORIENT,n/a,n/a,1,5,COW,CLAY,STAR,COW,2,"[0, 0, 0]",-999,PAL1,1,R1001P
251.062,4.0,132693,STUDY_PAIR,n/a,wordpools/wordpool_EN.txt,1,5,COW,CLAY,STAR,COW,2,"[0, 0, 0]",-999,PAL1,1,R1001P
256.096,0.275,135210,STUDY_ORIENT,n/a,n/a,2,4,GEESE,GOAT,CLAY,GEESE,2,"[0, 0, 0]",-999,PAL1,1,R1001P
256.963,4.0,135643,STUDY_PAIR,n/a,wordpools/wordpool_EN.txt,2,4,GEESE,GOAT,CLAY,GEESE,2,"[0, 0, 0]",-999,PAL1,1,R1001P
261.997,0.275,138160,STUDY_ORIENT,n/a,n/a,3,3,CLOWN,CLAY,ZOO,CLOWN,2,"[0, 0, 0]",-999,PAL1,1,R1001P
262.831,4.0,138577,STUDY_PAIR,n/a,wordpools/wordpool_EN.txt,3,3,CLOWN,CLAY,ZOO,CLOWN,2,"[0, 0, 0]",-999,PAL1,1,R1001P
267.865,0.275,141094,STUDY_ORIENT,n/a,n/a,4,2,STEAM,n/a,STEAM,DOCK,2,"[0, 0, 0]",-999,PAL1,1,R1001P
268.832,4.0,141577,STUDY_PAIR,n/a,wordpools/wordpool_EN.txt,4,2,STEAM,n/a,STEAM,DOCK,2,"[0, 0, 0]",-999,PAL1,1,R1001P
273.866,0.275,144094,STUDY_ORIENT,n/a,n/a,5,1,FROG,LEAF,TAIL,FROG,2,"[0, 0, 0]",-999,PAL1,1,R1001P
274.816,4.0,144569,STUDY_PAIR,n/a,wordpools/wordpool_EN.txt,5,1,FROG,LEAF,TAIL,FROG,2,"[0, 0, 0]",-999,PAL1,1,R1001P
279.834,0.275,147078,STUDY_ORIENT,n/a,n/a,6,6,STAIR,n/a,EGG,STAIR,2,"[0, 0, 0]",-999,PAL1,1,R1001P
280.751,4.0,147536,STUDY_PAIR,n/a,wordpools/wordpool_EN.txt,6,6,STAIR,n/a,EGG,STAIR,2,"[0, 0, 0]",-999,PAL1,1,R1001P
284.769,0.999,149545,START,n/a,n/a,-999,-999,n/a,n/a,n/a,n/a,2,"[-999, -999, -999]",-999,PAL1,1,R1001P
285.768,0.017,150045,MATH_START,n/a,n/a,-999,-999,n/a,n/a,n/a,n/a,2,"[0, 0, 0]",-999,PAL1,1,R1001P
285.785,12.219,150053,PROB,12.196,n/a,-999,-999,n/a,n/a,n/a,n/a,2,"[4, 2, 2]",8,PAL1,1,R1001P
298.004,3.616,156162,PROB,3.584,n/a,-999,-999,n/a,n/a,n/a,n/a,2,"[2, 1, 4]",7,PAL1,1,R1001P
301.62,4.729,157970,PROB,4.729,n/a,-999,-999,n/a,n/a,n/a,n/a,2,"[6, 6, 3]",15,PAL1,1,R1001P
306.349,0.007,160335,STOP,n/a,n/a,-999,-999,n/a,n/a,n/a,n/a,2,"[-999, -999, -999]",-999,PAL1,1,R1001P
306.356,0.0,160338,MATH_END,n/a,n/a,-999,-999,n/a,n/a,n/a,n/a,2,"[0, 0, 0]",-999,PAL1,1,R1001P
306.356,0.016,160338,TEST_START,n/a,n/a,-999,-999,n/a,n/a,n/a,n/a,2,"[0, 0, 0]",-999,PAL1,1,R1001P
306.372,0.275,160346,TEST_ORIENT,n/a,n/a,5,1,FROG,LEAF,TAIL,FROG,2,"[0, 0, 0]",-999,PAL1,1,R1001P
307.173,4.0,160747,TEST_PROBE,n/a,wordpools/wordpool_EN.txt,5,1,FROG,LEAF,TAIL,FROG,2,"[0, 0, 0]",-999,PAL1,1,R1001P
307.173,3.281,160747,REC_START,n/a,n/a,5,-999,n/a,LEAF,n/a,n/a,2,"[0, 0, 0]",-999,PAL1,1,R1001P
310.454,1.736,162387,REC_EVENT,3.281,n/a,5,1,FROG,LEAF,TAIL,FROG,2,"[0, 0, 0]",-999,PAL1,1,R1001P
312.19,0.017,163255,REC_END,n/a,n/a,5,-999,n/a,n/a,n/a,n/a,2,"[0, 0, 0]",-999,PAL1,1,R1001P
312.207,0.275,163264,TEST_ORIENT,n/a,n/a,4,2,STEAM,n/a,STEAM,DOCK,2,"[0, 0, 0]",-999,PAL1,1,R1001P
313.04,4.0,163680,TEST_PROBE,n/a,wordpools/wordpool_EN.txt,4,2,STEAM,n/a,STEAM,DOCK,2,"[0, 0, 0]",-999,PAL1,1,R1001P
313.041,5.008,163680,REC_START,n/a,n/a,4,-999,n/a,n/a,n/a,n/a,2,"[0, 0, 0]",-999,PAL1,1,R1001P
318.049,0.001,166184,REC_END,n/a,n/a,4,-999,n/a,n/a,n/a,n/a,2,"[0, 0, 0]",-999,PAL1,1,R1001P
318.05,0.008,166185,REC_EVENT,5.009,n/a,4,2,STEAM,<>,STEAM,DOCK,2,"[0, 0, 0]",-999,PAL1,1,R1001P
318.058,0.275,166189,TEST_ORIENT,n/a,n/a,3,3,CLOWN,CLAY,ZOO,CLOWN,2,"[0, 0, 0]",-999,PAL1,1,R1001P
319.025,4.0,166672,TEST_PROBE,n/a,wordpools/wordpool_EN.txt,3,3,CLOWN,CLAY,ZOO,CLOWN,2,"[0, 0, 0]",-999,PAL1,1,R1001P
319.025,2.317,166672,REC_START,n/a,n/a,3,-999,n/a,CLAY,n/a,n/a,2,"[0, 0, 0]",-999,PAL1,1,R1001P
321.342,2.7,167831,REC_EVENT,2.317,n/a,3,3,CLOWN,CLAY,ZOO,CLOWN,2,"[0, 0, 0]",-999,PAL1,1,R1001P
324.042,0.017,169181,REC_END,n/a,n/a,3,-999,n/a,n/a,n/a,n/a,2,"[0, 0, 0]",-999,PAL1,1,R1001P
324.059,0.275,169189,TEST_ORIENT,n/a,n/a,2,4,GEESE,GOAT,CLAY,GEESE,2,"[0, 0, 0]",-999,PAL1,1,R1001P
325.059,4.0,169689,TEST_PROBE,n/a,wordpools/wordpool_EN.txt,2,4,GEESE,GOAT,CLAY,GEESE,2,"[0, 0, 0]",-999,PAL1,1,R1001P
325.061,1.902,169690,REC_START,n/a,n/a,2,-999,n/a,GOAT,n/a,n/a,2,"[0, 0, 0]",-999,PAL1,1,R1001P
326.963,3.097,170641,REC_EVENT,1.902,n/a,2,4,GEESE,GOAT,CLAY,GEESE,2,"[0, 0, 0]",-999,PAL1,1,R1001P
330.06,0.017,172190,REC_END,n/a,n/a,2,-999,n/a,n/a,n/a,n/a,2,"[0, 0, 0]",-999,PAL1,1,R1001P
330.077,0.275,172198,TEST_ORIENT,n/a,n/a,1,5,COW,CLAY,STAR,COW,2,"[0, 0, 0]",-999,PAL1,1,R1001P
331.044,4.0,172682,TEST_PROBE,n/a,wordpools/wordpool_EN.txt,1,5,COW,CLAY,STAR,COW,2,"[0, 0, 0]",-999,PAL1,1,R1001P
331.044,3.627,172682,REC_START,n/a,n/a,1,-999,n/a,CLAY,n/a,n/a,2,"[0, 0, 0]",-999,PAL1,1,R1001P
334.671,1.39,174495,REC_EVENT,3.627,n/a,1,5,COW,CLAY,STAR,COW,2,"[0, 0, 0]",-999,PAL1,1,R1001P
336.061,0.017,175190,REC_END,n/a,n/a,1,-999,n/a,n/a,n/a,n/a,2,"[0, 0, 0]",-999,PAL1,1,R1001P
336.078,0.275,175198,TEST_ORIENT,n/a,n/a,6,6,STAIR,n/a,EGG,STAIR,2,"[0, 0, 0]",-999,PAL1,1,R1001P
336.928,0.0,175623,REC_START,n/a,n/a,6,-999,n/a,n/a,n/a,n/a,2,"[0, 0, 0]",-999,PAL1,1,R1001P
336.928,4.0,175623,TEST_PROBE,n/a,wordpools/wordpool_EN.txt,6,6,STAIR,n/a,EGG,STAIR,2,"[0, 0, 0]",-999,PAL1,1,R1001P
341.946,0.003,178132,REC_END,n/a,n/a,6,-999,n/a,n/a,n/a,n/a,2,"[0, 0, 0]",-999,PAL1,1,R1001P
341.949,1.512,178134,REC_EVENT,5.021,n/a,6,6,STAIR,<>,EGG,STAIR,2,"[0, 0, 0]",-999,PAL1,1,R1001P
343.461,10.454,178890,ENCODING_START,n/a,n/a,0,-999,n/a,n/a,n/a,n/a,3,"[0, 0, 0]",-999,PAL1,1,R1001P
353.915,0.275,184116,STUDY_ORIENT,n/a,n/a,1,5,SNAKE,SHELL,SNAKE,EAR,3,"[0, 0, 0]",-999,PAL1,1,R1001P
354.799,4.0,184558,STUDY_PAIR,n/a,wordpools/wordpool_EN.txt,1,5,SNAKE,SHELL,SNAKE,EAR,3,"[0, 0, 0]",-999,PAL1,1,R1001P
359.833,0.275,187075,STUDY_ORIENT,n/a,n/a,2,4,LAKE,SNAKE,MUG,LAKE,3,"[0, 0, 0]",-999,PAL1,1,R1001P
360.85,4.0,187584,STUDY_PAIR,n/a,wordpools/wordpool_EN.txt,2,4,LAKE,SNAKE,MUG,LAKE,3,"[0, 0, 0]",-999,PAL1,1,R1001P
365.884,0.275,190101,STUDY_ORIENT,n/a,n/a,3,1,HORSE,n/a,DUCK,HORSE,3,"[0, 0, 0]",-999,PAL1,1,R1001P
366.7,4.0,190509,STUDY_PAIR,n/a,wordpools/wordpool_EN.txt,3,1,HORSE,n/a,DUCK,HORSE,3,"[0, 0, 0]",-999,PAL1,1,R1001P
371.735,0.275,193026,STUDY_ORIENT,n/a,n/a,4,2,MOOSE,n/a,MOOSE,BEACH,3,"[0, 0, 0]",-999,PAL1,1,R1001P
372.601,4.0,193459,STUDY_PAIR,n/a,wordpools/wordpool_EN.txt,4,2,MOOSE,n/a,MOOSE,BEACH,3,"[0, 0, 0]",-999,PAL1,1,R1001P
377.635,0.275,195976,STUDY_ORIENT,n/a,n/a,5,3,COIN,CLAY,COIN,PIT,3,"[0, 0, 0]",-999,PAL1,1,R1001P
378.635,4.0,196476,STUDY_PAIR,n/a,wordpools/wordpool_EN.txt,5,3,COIN,CLAY,COIN,PIT,3,"[0, 0, 0]",-999,PAL1,1,R1001P
383.653,0.275,198985,STUDY_ORIENT,n/a,n/a,6,6,ROPE,n/a,ROPE,SPARK,3,"[0, 0, 0]",-999,PAL1,1,R1001P
384.62,4.0,199468,STUDY_PAIR,n/a,wordpools/wordpool_EN.txt,6,6,ROPE,n/a,ROPE,SPARK,3,"[0, 0, 0]",-999,PAL1,1,R1001P
388.638,0.999,201477,START,n/a,n/a,-999,-999,n/a,n/a,n/a,n/a,3,"[-999, -999, -999]",-999,PAL1,1,R1001P
389.637,0.017,201976,MATH_START,n/a,n/a,-999,-999,n/a,n/a,n/a,n/a,3,"[0, 0, 0]",-999,PAL1,1,R1001P
389.654,8.77,201985,PROB,8.743,n/a,-999,-999,n/a,n/a,n/a,n/a,3,"[2, 4, 9]",15,PAL1,1,R1001P
398.424,5.084,206370,PROB,5.061,n/a,-999,-999,n/a,n/a,n/a,n/a,3,"[1, 6, 5]",12,PAL1,1,R1001P
403.508,3.367,208912,PROB,3.345,n/a,-999,-999,n/a,n/a,n/a,n/a,3,"[1, 1, 7]",9,PAL1,1,R1001P
406.875,6.21,210595,PROB,6.21,n/a,-999,-999,n/a,n/a,n/a,n/a,3,"[3, 3, 7]",13,PAL1,1,R1001P
413.085,0.008,213700,STOP,n/a,n/a,-999,-999,n/a,n/a,n/a,n/a,3,"[-999, -999, -999]",-999,PAL1,1,R1001P
413.093,0.0,213704,TEST_START,n/a,n/a,-999,-999,n/a,n/a,n/a,n/a,3,"[0, 0, 0]",-999,PAL1,1,R1001P
413.093,0.017,213704,MATH_END,n/a,n/a,-999,-999,n/a,n/a,n/a,n/a,3,"[0, 0, 0]",-999,PAL1,1,R1001P
413.11,0.275,213712,TEST_ORIENT,n/a,n/a,3,1,HORSE,n/a,DUCK,HORSE,3,"[0, 0, 0]",-999,PAL1,1,R1001P
414.143,4.0,214229,TEST_PROBE,n/a,wordpools/wordpool_EN.txt,3,1,HORSE,n/a,DUCK,HORSE,3,"[0, 0, 0]",-999,PAL1,1,R1001P
414.144,5.009,214229,REC_START,n/a,n/a,3,-999,n/a,n/a,n/a,n/a,3,"[0, 0, 0]",-999,PAL1,1,R1001P
419.153,0.0,216734,REC_EVENT,5.009,n/a,3,1,HORSE,<>,DUCK,HORSE,3,"[0, 0, 0]",-999,PAL1,1,R1001P
419.153,0.008,216734,REC_END,n/a,n/a,3,-999,n/a,n/a,n/a,n/a,3,"[0, 0, 0]",-999,PAL1,1,R1001P
419.161,0.275,216738,TEST_ORIENT,n/a,n/a,4,2,MOOSE,n/a,MOOSE,BEACH,3,"[0, 0, 0]",-999,PAL1,1,R1001P
419.994,4.0,217154,TEST_PROBE,n/a,wordpools/wordpool_EN.txt,4,2,MOOSE,n/a,MOOSE,BEACH,3,"[0, 0, 0]",-999,PAL1,1,R1001P
419.995,5.009,217155,REC_START,n/a,n/a,4,-999,n/a,n/a,n/a,n/a,3,"[0, 0, 0]",-999,PAL1,1,R1001P
425.004,0.0,219659,REC_EVENT,5.009,n/a,4,2,MOOSE,<>,MOOSE,BEACH,3,"[0, 0, 0]",-999,PAL1,1,R1001P
425.004,0.008,219659,REC_END,n/a,n/a,4,-999,n/a,n/a,n/a,n/a,3,"[0, 0, 0]",-999,PAL1,1,R1001P
425.012,0.275,219663,TEST_ORIENT,n/a,n/a,5,3,COIN,CLAY,COIN,PIT,3,"[0, 0, 0]",-999,PAL1,1,R1001P
426.045,4.0,220179,TEST_PROBE,n/a,wordpools/wordpool_EN.txt,5,3,COIN,CLAY,COIN,PIT,3,"[0, 0, 0]",-999,PAL1,1,R1001P
426.046,2.512,220180,REC_START,n/a,n/a,5,-999,n/a,CLAY,n/a,n/a,3,"[0, 0, 0]",-999,PAL1,1,R1001P
428.558,2.497,221436,REC_EVENT,2.512,n/a,5,3,COIN,CLAY,COIN,PIT,3,"[0, 0, 0]",-999,PAL1,1,R1001P
431.055,0.008,222684,REC_END,n/a,n/a,5,-999,n/a,n/a,n/a,n/a,3,"[0, 0, 0]",-999,PAL1,1,R1001P
431.063,0.275,222688,TEST_ORIENT,n/a,n/a,2,4,LAKE,SNAKE,MUG,LAKE,3,"[0, 0, 0]",-999,PAL1,1,R1001P
431.863,4.0,223088,TEST_PROBE,n/a,wordpools/wordpool_EN.txt,2,4,LAKE,SNAKE,MUG,LAKE,3,"[0, 0, 0]",-999,PAL1,1,R1001P
431.864,1.836,223089,REC_START,n/a,n/a,2,-999,n/a,SNAKE,n/a,n/a,3,"[0, 0, 0]",-999,PAL1,1,R1001P
433.7,3.173,224007,REC_EVENT,1.836,n/a,2,4,LAKE,SNAKE,MUG,LAKE,3,"[0, 0, 0]",-999,PAL1,1,R1001P
436.873,0.008,225593,REC_END,n/a,n/a,2,-999,n/a,n/a,n/a,n/a,3,"[0, 0, 0]",-999,PAL1,1,R1001P
436.881,0.275,225597,TEST_ORIENT,n/a,n/a,1,5,SNAKE,SHELL,SNAKE,EAR,3,"[0, 0, 0]",-999,PAL1,1,R1001P
437.731,4.0,226022,TEST_PROBE,n/a,wordpools/wordpool_EN.txt,1,5,SNAKE,SHELL,SNAKE,EAR,3,"[0, 0, 0]",-999,PAL1,1,R1001P
437.732,4.487,226023,REC_START,n/a,n/a,1,-999,n/a,SHELL,n/a,n/a,3,"[0, 0, 0]",-999,PAL1,1,R1001P
442.219,0.539,228266,REC_EVENT,4.487,n/a,1,5,SNAKE,SHELL,SNAKE,EAR,3,"[0, 0, 0]",-999,PAL1,1,R1001P
442.758,0.007,228536,REC_END,n/a,n/a,1,-999,n/a,n/a,n/a,n/a,3,"[0, 0, 0]",-999,PAL1,1,R1001P
442.765,0.275,228539,TEST_ORIENT,n/a,n/a,6,6,ROPE,n/a,ROPE,SPARK,3,"[0, 0, 0]",-999,PAL1,1,R1001P
443.766,4.0,229039,TEST_PROBE,n/a,wordpools/wordpool_EN.txt,6,6,ROPE,n/a,ROPE,SPARK,3,"[0, 0, 0]",-999,PAL1,1,R1001P
443.766,5.015,229039,REC_START,n/a,n/a,6,-999,n/a,n/a,n/a,n/a,3,"[0, 0, 0]",-999,PAL1,1,R1001P
448.781,0.002,231547,REC_EVENT,5.015,n/a,6,6,ROPE,<>,ROPE,SPARK,3,"[0, 0, 0]",-999,PAL1,1,R1001P
448.783,1.542,231548,REC_END,n/a,n/a,6,-999,n/a,n/a,n/a,n/a,3,"[0, 0, 0]",-999,PAL1,1,R1001P
450.325,10.444,232319,ENCODING_START,n/a,n/a,0,-999,n/a,n/a,n/a,n/a,4,"[0, 0, 0]",-999,PAL1,1,R1001P
460.769,0.275,237541,STUDY_ORIENT,n/a,n/a,1,1,CALF,n/a,CALF,VAN,4,"[0, 0, 0]",-999,PAL1,1,R1001P
461.569,4.0,237941,STUDY_PAIR,n/a,wordpools/wordpool_EN.txt,1,1,CALF,n/a,CALF,VAN,4,"[0, 0, 0]",-999,PAL1,1,R1001P
466.602,0.275,240457,STUDY_ORIENT,n/a,n/a,2,4,BALL,n/a,BALL,FACE,4,"[0, 0, 0]",-999,PAL1,1,R1001P
467.553,4.0,240932,STUDY_PAIR,n/a,wordpools/wordpool_EN.txt,2,4,BALL,n/a,BALL,FACE,4,"[0, 0, 0]",-999,PAL1,1,R1001P
472.571,0.275,243441,STUDY_ORIENT,n/a,n/a,3,3,LOCK,n/a,WEB,LOCK,4,"[0, 0, 0]",-999,PAL1,1,R1001P
473.471,4.0,243891,STUDY_PAIR,n/a,wordpools/wordpool_EN.txt,3,3,LOCK,n/a,WEB,LOCK,4,"[0, 0, 0]",-999,PAL1,1,R1001P
478.489,0.275,246400,STUDY_ORIENT,n/a,n/a,4,6,GRAPE,n/a,SHIRT,GRAPE,4,"[0, 0, 0]",-999,PAL1,1,R1001P
479.339,4.0,246825,STUDY_PAIR,n/a,wordpools/wordpool_EN.txt,4,6,GRAPE,n/a,SHIRT,GRAPE,4,"[0, 0, 0]",-999,PAL1,1,R1001P
484.357,0.275,249334,STUDY_ORIENT,n/a,n/a,5,5,SPRING,ROCK,FOX,SPRING,4,"[0, 0, 0]",-999,PAL1,1,R1001P
485.274,4.0,249792,STUDY_PAIR,n/a,wordpools/wordpool_EN.txt,5,5,SPRING,ROCK,FOX,SPRING,4,"[0, 0, 0]",-999,PAL1,1,R1001P
490.308,0.275,252309,STUDY_ORIENT,n/a,n/a,6,2,BEAR,n/a,ROCK,BEAR,4,"[0, 0, 0]",-999,PAL1,1,R1001P
491.141,4.0,252726,STUDY_PAIR,n/a,wordpools/wordpool_EN.txt,6,2,BEAR,n/a,ROCK,BEAR,4,"[0, 0, 0]",-999,PAL1,1,R1001P
495.143,0.999,254727,START,n/a,n/a,-999,-999,n/a,n/a,n/a,n/a,4,"[-999, -999, -999]",-999,PAL1,1,R1001P
496.142,0.017,255226,MATH_START,n/a,n/a,-999,-999,n/a,n/a,n/a,n/a,4,"[0, 0, 0]",-999,PAL1,1,R1001P
496.159,25.206,255235,PROB,25.206,n/a,-999,-999,n/a,n/a,n/a,n/a,4,"[5, 9, 8]",22,PAL1,1,R1001P
521.365,0.016,267837,STOP,n/a,n/a,-999,-999,n/a,n/a,n/a,n/a,4,"[-999, -999, -999]",-999,PAL1,1,R1001P
521.381,0.0,267845,MATH_END,n/a,n/a,-999,-999,n/a,n/a,n/a,n/a,4,"[0, 0, 0]",-999,PAL1,1,R1001P
521.381,0.016,267845,TEST_START,n/a,n/a,-999,-999,n/a,n/a,n/a,n/a,4,"[0, 0, 0]",-999,PAL1,1,R1001P
521.397,0.275,267853,TEST_ORIENT,n/a,n/a,1,1,CALF,n/a,CALF,VAN,4,"[0, 0, 0]",-999,PAL1,1,R1001P
522.347,4.0,268328,TEST_PROBE,n/a,wordpools/wordpool_EN.txt,1,1,CALF,n/a,CALF,VAN,4,"[0, 0, 0]",-999,PAL1,1,R1001P
522.348,5.003,268328,REC_START,n/a,n/a,1,-999,n/a,n/a,n/a,n/a,4,"[0, 0, 0]",-999,PAL1,1,R1001P
527.351,0.005,270830,REC_EVENT,5.003,n/a,1,1,CALF,<>,CALF,VAN,4,"[0, 0, 0]",-999,PAL1,1,R1001P
527.356,0.009,270832,REC_END,n/a,n/a,1,-999,n/a,n/a,n/a,n/a,4,"[0, 0, 0]",-999,PAL1,1,R1001P
527.365,0.275,270837,TEST_ORIENT,n/a,n/a,6,2,BEAR,n/a,ROCK,BEAR,4,"[0, 0, 0]",-999,PAL1,1,R1001P
528.298,4.0,271303,TEST_PROBE,n/a,wordpools/wordpool_EN.txt,6,2,BEAR,n/a,ROCK,BEAR,4,"[0, 0, 0]",-999,PAL1,1,R1001P
528.299,5.008,271304,REC_START,n/a,n/a,6,-999,n/a,n/a,n/a,n/a,4,"[0, 0, 0]",-999,PAL1,1,R1001P
533.307,0.001,273808,REC_END,n/a,n/a,6,-999,n/a,n/a,n/a,n/a,4,"[0, 0, 0]",-999,PAL1,1,R1001P
533.308,0.008,273808,REC_EVENT,5.009,n/a,6,2,BEAR,<>,ROCK,BEAR,4,"[0, 0, 0]",-999,PAL1,1,R1001P
533.316,0.275,273812,TEST_ORIENT,n/a,n/a,3,3,LOCK,n/a,WEB,LOCK,4,"[0, 0, 0]",-999,PAL1,1,R1001P
534.166,4.0,274237,TEST_PROBE,n/a,wordpools/wordpool_EN.txt,3,3,LOCK,n/a,WEB,LOCK,4,"[0, 0, 0]",-999,PAL1,1,R1001P
534.167,4.998,274238,REC_START,n/a,n/a,3,-999,n/a,n/a,n/a,n/a,4,"[0, 0, 0]",-999,PAL1,1,R1001P
539.165,0.002,276736,REC_EVENT,4.998,n/a,3,3,LOCK,<>,WEB,LOCK,4,"[0, 0, 0]",-999,PAL1,1,R1001P
539.167,0.017,276737,REC_END,n/a,n/a,3,-999,n/a,n/a,n/a,n/a,4,"[0, 0, 0]",-999,PAL1,1,R1001P
539.184,0.275,276746,TEST_ORIENT,n/a,n/a,2,4,BALL,n/a,BALL,FACE,4,"[0, 0, 0]",-999,PAL1,1,R1001P
540.051,4.0,277179,TEST_PROBE,n/a,wordpools/wordpool_EN.txt,2,4,BALL,n/a,BALL,FACE,4,"[0, 0, 0]",-999,PAL1,1,R1001P
540.051,5.017,277179,REC_START,n/a,n/a,2,-999,n/a,n/a,n/a,n/a,4,"[0, 0, 0]",-999,PAL1,1,R1001P
545.068,0.004,279688,REC_END,n/a,n/a,2,-999,n/a,n/a,n/a,n/a,4,"[0, 0, 0]",-999,PAL1,1,R1001P
545.072,0.013,279690,REC_EVENT,5.021,n/a,2,4,BALL,<>,BALL,FACE,4,"[0, 0, 0]",-999,PAL1,1,R1001P
545.085,0.275,279696,TEST_ORIENT,n/a,n/a,5,5,SPRING,ROCK,FOX,SPRING,4,"[0, 0, 0]",-999,PAL1,1,R1001P
545.969,4.0,280138,TEST_PROBE,n/a,wordpools/wordpool_EN.txt,5,5,SPRING,ROCK,FOX,SPRING,4,"[0, 0, 0]",-999,PAL1,1,R1001P
545.969,1.676,280138,REC_START,n/a,n/a,5,-999,n/a,ROCK,n/a,n/a,4,"[0, 0, 0]",-999,PAL1,1,R1001P
547.645,3.341,280976,REC_EVENT,1.676,n/a,5,5,SPRING,ROCK,FOX,SPRING,4,"[0, 0, 0]",-999,PAL1,1,R1001P
550.986,0.017,282647,REC_END,n/a,n/a,5,-999,n/a,n/a,n/a,n/a,4,"[0, 0, 0]",-999,PAL1,1,R1001P
551.003,0.275,282655,TEST_ORIENT,n/a,n/a,4,6,GRAPE,n/a,SHIRT,GRAPE,4,"[0, 0, 0]",-999,PAL1,1,R1001P
551.903,4.0,283105,TEST_PROBE,n/a,wordpools/wordpool_EN.txt,4,6,GRAPE,n/a,SHIRT,GRAPE,4,"[0, 0, 0]",-999,PAL1,1,R1001P
551.903,5.025,283105,REC_START,n/a,n/a,4,-999,n/a,n/a,n/a,n/a,4,"[0, 0, 0]",-999,PAL1,1,R1001P
556.928,0.002,285617,REC_END,n/a,n/a,4,-999,n/a,n/a,n/a,n/a,4,"[0, 0, 0]",-999,PAL1,1,R1001P
556.93,1.611,285618,REC_EVENT,5.027,n/a,4,6,GRAPE,<>,SHIRT,GRAPE,4,"[0, 0, 0]",-999,PAL1,1,R1001P
558.541,10.449,286424,ENCODING_START,n/a,n/a,0,-999,n/a,n/a,n/a,n/a,5,"[0, 0, 0]",-999,PAL1,1,R1001P
568.99,0.275,291648,STUDY_ORIENT,n/a,n/a,1,1,CAVE,n/a,CAVE,RAKE,5,"[0, 0, 0]",-999,PAL1,1,R1001P
569.973,4.0,292140,STUDY_PAIR,n/a,wordpools/wordpool_EN.txt,1,1,CAVE,n/a,CAVE,RAKE,5,"[0, 0, 0]",-999,PAL1,1,R1001P
574.991,0.275,294648,STUDY_ORIENT,n/a,n/a,2,6,STEAK,FOOD,STEAK,TOAST,5,"[0, 0, 0]",-999,PAL1,1,R1001P
575.841,4.0,295073,STUDY_PAIR,n/a,wordpools/wordpool_EN.txt,2,6,STEAK,FOOD,STEAK,TOAST,5,"[0, 0, 0]",-999,PAL1,1,R1001P
580.875,0.275,297590,STUDY_ORIENT,n/a,n/a,3,3,CORN,FOOD,CORN,TIE,5,"[0, 0, 0]",-999,PAL1,1,R1001P
581.658,4.0,297982,STUDY_PAIR,n/a,wordpools/wordpool_EN.txt,3,3,CORN,FOOD,CORN,TIE,5,"[0, 0, 0]",-999,PAL1,1,R1001P
586.692,0.275,300499,STUDY_ORIENT,n/a,n/a,4,2,TRAIN,ROCK,TRAIN,PANTS,5,"[0, 0, 0]",-999,PAL1,1,R1001P
587.527,4.0,300916,STUDY_PAIR,n/a,wordpools/wordpool_EN.txt,4,2,TRAIN,ROCK,TRAIN,PANTS,5,"[0, 0, 0]",-999,PAL1,1,R1001P
592.561,0.275,303433,STUDY_ORIENT,n/a,n/a,5,5,SOCK,n/a,BOAT,SOCK,5,"[0, 0, 0]",-999,PAL1,1,R1001P
593.378,4.0,303841,STUDY_PAIR,n/a,wordpools/wordpool_EN.txt,5,5,SOCK,n/a,BOAT,SOCK,5,"[0, 0, 0]",-999,PAL1,1,R1001P
598.412,0.275,306358,STUDY_ORIENT,n/a,n/a,6,4,TEA,n/a,FRUIT,TEA,5,"[0, 0, 0]",-999,PAL1,1,R1001P
599.346,4.0,306825,STUDY_PAIR,n/a,wordpools/wordpool_EN.txt,6,4,TEA,n/a,FRUIT,TEA,5,"[0, 0, 0]",-999,PAL1,1,R1001P
603.364,0.999,308834,START,n/a,n/a,-999,-999,n/a,n/a,n/a,n/a,5,"[-999, -999, -999]",-999,PAL1,1,R1001P
604.363,0.017,309334,MATH_START,n/a,n/a,-999,-999,n/a,n/a,n/a,n/a,5,"[0, 0, 0]",-999,PAL1,1,R1001P
604.38,5.217,309342,PROB,5.177,n/a,-999,-999,n/a,n/a,n/a,n/a,5,"[1, 6, 6]",13,PAL1,1,R1001P
609.597,5.235,311951,PROB,5.208,n/a,-999,-999,n/a,n/a,n/a,n/a,5,"[3, 5, 8]",16,PAL1,1,R1001P
614.832,5.8,314568,PROB,5.772,n/a,-999,-999,n/a,n/a,n/a,n/a,5,"[3, 2, 1]",6,PAL1,1,R1001P
620.632,4.261,317468,PROB,4.261,n/a,-999,-999,n/a,n/a,n/a,n/a,5,"[1, 9, 5]",15,PAL1,1,R1001P
624.893,0.007,319598,STOP,n/a,n/a,-999,-999,n/a,n/a,n/a,n/a,5,"[-999, -999, -999]",-999,PAL1,1,R1001P
624.9,0.0,319602,MATH_END,n/a,n/a,-999,-999,n/a,n/a,n/a,n/a,5,"[0, 0, 0]",-999,PAL1,1,R1001P
624.9,0.017,319602,TEST_START,n/a,n/a,-999,-999,n/a,n/a,n/a,n/a,5,"[0, 0, 0]",-999,PAL1,1,R1001P
624.917,0.275,319610,TEST_ORIENT,n/a,n/a,1,1,CAVE,n/a,CAVE,RAKE,5,"[0, 0, 0]",-999,PAL1,1,R1001P
625.734,4.0,320019,TEST_PROBE,n/a,wordpools/wordpool_EN.txt,1,1,CAVE,n/a,CAVE,RAKE,5,"[0, 0, 0]",-999,PAL1,1,R1001P
625.734,5.015,320019,REC_START,n/a,n/a,1,-999,n/a,n/a,n/a,n/a,5,"[0, 0, 0]",-999,PAL1,1,R1001P
630.749,0.002,322526,REC_EVENT,5.015,n/a,1,1,CAVE,<>,CAVE,RAKE,5,"[0, 0, 0]",-999,PAL1,1,R1001P
630.751,0.017,322527,REC_END,n/a,n/a,1,-999,n/a,n/a,n/a,n/a,5,"[0, 0, 0]",-999,PAL1,1,R1001P
630.768,0.275,322535,TEST_ORIENT,n/a,n/a,4,2,TRAIN,ROCK,TRAIN,PANTS,5,"[0, 0, 0]",-999,PAL1,1,R1001P
631.768,4.0,323035,TEST_PROBE,n/a,wordpools/wordpool_EN.txt,4,2,TRAIN,ROCK,TRAIN,PANTS,5,"[0, 0, 0]",-999,PAL1,1,R1001P
631.769,3.918,323036,REC_START,n/a,n/a,4,-999,n/a,ROCK,n/a,n/a,5,"[0, 0, 0]",-999,PAL1,1,R1001P
635.687,1.09,324995,REC_EVENT,3.918,n/a,4,2,TRAIN,ROCK,TRAIN,PANTS,5,"[0, 0, 0]",-999,PAL1,1,R1001P
636.777,0.009,325540,REC_END,n/a,n/a,4,-999,n/a,n/a,n/a,n/a,5,"[0, 0, 0]",-999,PAL1,1,R1001P
636.786,0.275,325544,TEST_ORIENT,n/a,n/a,3,3,CORN,FOOD,CORN,TIE,5,"[0, 0, 0]",-999,PAL1,1,R1001P
637.669,4.0,325986,TEST_PROBE,n/a,wordpools/wordpool_EN.txt,3,3,CORN,FOOD,CORN,TIE,5,"[0, 0, 0]",-999,PAL1,1,R1001P
637.669,3.103,325986,REC_START,n/a,n/a,3,-999,n/a,FOOD,n/a,n/a,5,"[0, 0, 0]",-999,PAL1,1,R1001P
640.772,1.914,327537,REC_EVENT,3.103,n/a,3,3,CORN,FOOD,CORN,TIE,5,"[0, 0, 0]",-999,PAL1,1,R1001P
642.686,0.017,328494,REC_END,n/a,n/a,3,-999,n/a,n/a,n/a,n/a,5,"[0, 0, 0]",-999,PAL1,1,R1001P
642.703,0.275,328503,TEST_ORIENT,n/a,n/a,6,4,TEA,n/a,FRUIT,TEA,5,"[0, 0, 0]",-999,PAL1,1,R1001P
643.487,4.0,328895,TEST_PROBE,n/a,wordpools/wordpool_EN.txt,6,4,TEA,n/a,FRUIT,TEA,5,"[0, 0, 0]",-999,PAL1,1,R1001P
643.488,5.009,328895,REC_START,n/a,n/a,6,-999,n/a,n/a,n/a,n/a,5,"[0, 0, 0]",-999,PAL1,1,R1001P
648.497,0.0,331399,REC_EVENT,5.009,n/a,6,4,TEA,<>,FRUIT,TEA,5,"[0, 0, 0]",-999,PAL1,1,R1001P
648.497,0.008,331399,REC_END,n/a,n/a,6,-999,n/a,n/a,n/a,n/a,5,"[0, 0, 0]",-999,PAL1,1,R1001P
648.505,0.275,331403,TEST_ORIENT,n/a,n/a,5,5,SOCK,n/a,BOAT,SOCK,5,"[0, 0, 0]",-999,PAL1,1,R1001P
649.472,4.0,331887,TEST_PROBE,n/a,wordpools/wordpool_EN.txt,5,5,SOCK,n/a,BOAT,SOCK,5,"[0, 0, 0]",-999,PAL1,1,R1001P
649.472,4.145,331887,REC_START,n/a,n/a,5,-999,n/a,n/a,n/a,n/a,5,"[0, 0, 0]",-999,PAL1,1,R1001P
653.617,0.872,333959,REC_EVENT,4.145,n/a,5,5,SOCK,<>,BOAT,SOCK,5,"[0, 0, 0]",-999,PAL1,1,R1001P
654.489,0.017,334395,REC_END,n/a,n/a,5,-999,n/a,n/a,n/a,n/a,5,"[0, 0, 0]",-999,PAL1,1,R1001P
654.506,0.275,334404,TEST_ORIENT,n/a,n/a,2,6,STEAK,FOOD,STEAK,TOAST,5,"[0, 0, 0]",-999,PAL1,1,R1001P
655.39,4.0,334846,TEST_PROBE,n/a,wordpools/wordpool_EN.txt,2,6,STEAK,FOOD,STEAK,TOAST,5,"[0, 0, 0]",-999,PAL1,1,R1001P
655.391,3.677,334846,REC_START,n/a,n/a,2,-999,n/a,FOOD,n/a,n/a,5,"[0, 0, 0]",-999,PAL1,1,R1001P
659.068,1.348,336685,REC_EVENT,3.677,n/a,2,6,STEAK,FOOD,STEAK,TOAST,5,"[0, 0, 0]",-999,PAL1,1,R1001P
660.416,1.813,337359,REC_END,n/a,n/a,2,-999,n/a,n/a,n/a,n/a,5,"[0, 0, 0]",-999,PAL1,1,R1001P
662.229,10.446,338265,ENCODING_START,n/a,n/a,0,-999,n/a,n/a,n/a,n/a,6,"[0, 0, 0]",-999,PAL1,1,R1001P
672.675,0.275,343488,STUDY_ORIENT,n/a,n/a,1,5,PURSE,GOLD,PURSE,HILL,6,"[0, 0, 0]",-999,PAL1,1,R1001P
673.609,4.0,343955,STUDY_PAIR,n/a,wordpools/wordpool_EN.txt,1,5,PURSE,GOLD,PURSE,HILL,6,"[0, 0, 0]",-999,PAL1,1,R1001P
678.643,0.275,346472,STUDY_ORIENT,n/a,n/a,2,2,KITE,n/a,KITE,LEAF,6,"[0, 0, 0]",-999,PAL1,1,R1001P
679.411,4.0,346856,STUDY_PAIR,n/a,wordpools/wordpool_EN.txt,2,2,KITE,n/a,KITE,LEAF,6,"[0, 0, 0]",-999,PAL1,1,R1001P
684.445,0.275,349373,STUDY_ORIENT,n/a,n/a,3,3,GOLD,n/a,TOOTH,GOLD,6,"[0, 0, 0]",-999,PAL1,1,R1001P
685.395,4.0,349847,STUDY_PAIR,n/a,wordpools/wordpool_EN.txt,3,3,GOLD,n/a,TOOTH,GOLD,6,"[0, 0, 0]",-999,PAL1,1,R1001P
690.413,0.275,352356,STUDY_ORIENT,n/a,n/a,4,4,CROW,n/a,CROW,POOL,6,"[0, 0, 0]",-999,PAL1,1,R1001P
691.197,4.0,352748,STUDY_PAIR,n/a,wordpools/wordpool_EN.txt,4,4,CROW,n/a,CROW,POOL,6,"[0, 0, 0]",-999,PAL1,1,R1001P
696.231,0.275,355265,STUDY_ORIENT,n/a,n/a,5,1,ARK,n/a,ARK,JUDGE,6,"[0, 0, 0]",-999,PAL1,1,R1001P
697.114,4.0,355707,STUDY_PAIR,n/a,wordpools/wordpool_EN.txt,5,1,ARK,n/a,ARK,JUDGE,6,"[0, 0, 0]",-999,PAL1,1,R1001P
702.132,0.275,358216,STUDY_ORIENT,n/a,n/a,6,6,STOVE,n/a,SOAP,STOVE,6,"[0, 0, 0]",-999,PAL1,1,R1001P
702.999,4.0,358649,STUDY_PAIR,n/a,wordpools/wordpool_EN.txt,6,6,STOVE,n/a,SOAP,STOVE,6,"[0, 0, 0]",-999,PAL1,1,R1001P
707.017,0.999,360658,START,n/a,n/a,-999,-999,n/a,n/a,n/a,n/a,6,"[-999, -999, -999]",-999,PAL1,1,R1001P
708.016,0.017,361157,MATH_START,n/a,n/a,-999,-999,n/a,n/a,n/a,n/a,6,"[0, 0, 0]",-999,PAL1,1,R1001P
708.033,5.368,361166,PROB,5.34,n/a,-999,-999,n/a,n/a,n/a,n/a,6,"[5, 7, 1]",13,PAL1,1,R1001P
713.401,9.785,363850,PROB,9.756,n/a,-999,-999,n/a,n/a,n/a,n/a,6,"[4, 5, 9]",18,PAL1,1,R1001P
723.186,5.155,368742,PROB,5.155,n/a,-999,-999,n/a,n/a,n/a,n/a,6,"[2, 1, 3]",6,PAL1,1,R1001P
728.341,0.013,371319,STOP,n/a,n/a,-999,-999,n/a,n/a,n/a,n/a,6,"[-999, -999, -999]",-999,PAL1,1,R1001P
728.354,0.0,371326,MATH_END,n/a,n/a,-999,-999,n/a,n/a,n/a,n/a,6,"[0, 0, 0]",-999,PAL1,1,R1001P
728.354,0.016,371326,TEST_START,n/a,n/a,-999,-999,n/a,n/a,n/a,n/a,6,"[0, 0, 0]",-999,PAL1,1,R1001P
728.37,0.275,371334,TEST_ORIENT,n/a,n/a,5,1,ARK,n/a,ARK,JUDGE,6,"[0, 0, 0]",-999,PAL1,1,R1001P
729.221,4.0,371759,TEST_PROBE,n/a,wordpools/wordpool_EN.txt,5,1,ARK,n/a,ARK,JUDGE,6,"[0, 0, 0]",-999,PAL1,1,R1001P
729.221,5.015,371759,REC_START,n/a,n/a,5,-999,n/a,n/a,n/a,n/a,6,"[0, 0, 0]",-999,PAL1,1,R1001P
734.236,0.002,374267,REC_EVENT,5.015,n/a,5,1,ARK,<>,ARK,JUDGE,6,"[0, 0, 0]",-999,PAL1,1,R1001P
734.238,0.017,374268,REC_END,n/a,n/a,5,-999,n/a,n/a,n/a,n/a,6,"[0, 0, 0]",-999,PAL1,1,R1001P
734.255,0.275,374276,TEST_ORIENT,n/a,n/a,2,2,KITE,n/a,KITE,LEAF,6,"[0, 0, 0]",-999,PAL1,1,R1001P
735.088,4.0,374693,TEST_PROBE,n/a,wordpools/wordpool_EN.txt,2,2,KITE,n/a,KITE,LEAF,6,"[0, 0, 0]",-999,PAL1,1,R1001P
735.088,5.015,374693,REC_START,n/a,n/a,2,-999,n/a,n/a,n/a,n/a,6,"[0, 0, 0]",-999,PAL1,1,R1001P
740.103,0.003,377200,REC_EVENT,5.015,n/a,2,2,KITE,<>,KITE,LEAF,6,"[0, 0, 0]",-999,PAL1,1,R1001P
740.106,0.017,377202,REC_END,n/a,n/a,2,-999,n/a,n/a,n/a,n/a,6,"[0, 0, 0]",-999,PAL1,1,R1001P
740.123,0.275,377210,TEST_ORIENT,n/a,n/a,3,3,GOLD,n/a,TOOTH,GOLD,6,"[0, 0, 0]",-999,PAL1,1,R1001P
741.073,4.0,377685,TEST_PROBE,n/a,wordpools/wordpool_EN.txt,3,3,GOLD,n/a,TOOTH,GOLD,6,"[0, 0, 0]",-999,PAL1,1,R1001P
741.073,5.015,377685,REC_START,n/a,n/a,3,-999,n/a,n/a,n/a,n/a,6,"[0, 0, 0]",-999,PAL1,1,R1001P
746.088,0.002,380192,REC_EVENT,5.015,n/a,3,3,GOLD,<>,TOOTH,GOLD,6,"[0, 0, 0]",-999,PAL1,1,R1001P
746.09,0.017,380193,REC_END,n/a,n/a,3,-999,n/a,n/a,n/a,n/a,6,"[0, 0, 0]",-999,PAL1,1,R1001P
746.107,0.275,380202,TEST_ORIENT,n/a,n/a,4,4,CROW,n/a,CROW,POOL,6,"[0, 0, 0]",-999,PAL1,1,R1001P
746.907,4.0,380602,TEST_PROBE,n/a,wordpools/wordpool_EN.txt,4,4,CROW,n/a,CROW,POOL,6,"[0, 0, 0]",-999,PAL1,1,R1001P
746.908,5.009,380602,REC_START,n/a,n/a,4,-999,n/a,n/a,n/a,n/a,6,"[0, 0, 0]",-999,PAL1,1,R1001P
751.917,0.0,383107,REC_EVENT,5.009,n/a,4,4,CROW,<>,CROW,POOL,6,"[0, 0, 0]",-999,PAL1,1,R1001P
751.917,0.008,383107,REC_END,n/a,n/a,4,-999,n/a,n/a,n/a,n/a,6,"[0, 0, 0]",-999,PAL1,1,R1001P
751.925,0.275,383111,TEST_ORIENT,n/a,n/a,1,5,PURSE,GOLD,PURSE,HILL,6,"[0, 0, 0]",-999,PAL1,1,R1001P
752.925,4.0,383611,TEST_PROBE,n/a,wordpools/wordpool_EN.txt,1,5,PURSE,GOLD,PURSE,HILL,6,"[0, 0, 0]",-999,PAL1,1,R1001P
752.926,1.914,383611,REC_START,n/a,n/a,1,-999,n/a,GOLD,n/a,n/a,6,"[0, 0, 0]",-999,PAL1,1,R1001P
754.84,3.095,384568,REC_EVENT,1.914,n/a,1,5,PURSE,GOLD,PURSE,HILL,6,"[0, 0, 0]",-999,PAL1,1,R1001P
757.935,0.008,386116,REC_END,n/a,n/a,1,-999,n/a,n/a,n/a,n/a,6,"[0, 0, 0]",-999,PAL1,1,R1001P
757.943,0.275,386120,TEST_ORIENT,n/a,n/a,6,6,STOVE,n/a,SOAP,STOVE,6,"[0, 0, 0]",-999,PAL1,1,R1001P
758.826,4.0,386561,TEST_PROBE,n/a,wordpools/wordpool_EN.txt,6,6,STOVE,n/a,SOAP,STOVE,6,"[0, 0, 0]",-999,PAL1,1,R1001P
758.827,5.009,386562,REC_START,n/a,n/a,6,-999,n/a,n/a,n/a,n/a,6,"[0, 0, 0]",-999,PAL1,1,R1001P
763.836,0.0,389066,REC_EVENT,5.009,n/a,6,6,STOVE,<>,SOAP,STOVE,6,"[0, 0, 0]",-999,PAL1,1,R1001P
763.836,1.385,389066,REC_END,n/a,n/a,6,-999,n/a,n/a,n/a,n/a,6,"[0, 0, 0]",-999,PAL1,1,R1001P
765.221,10.441,389758,ENCODING_START,n/a,n/a,0,-999,n/a,n/a,n/a,n/a,7,"[0, 0, 0]",-999,PAL1,1,R1001P
775.662,0.275,394979,STUDY_ORIENT,n/a,n/a,1,3,DRUM,n/a,DRUM,TOAD,7,"[0, 0, 0]",-999,PAL1,1,R1001P
776.546,4.0,395421,STUDY_PAIR,n/a,wordpools/wordpool_EN.txt,1,3,DRUM,n/a,DRUM,TOAD,7,"[0, 0, 0]",-999,PAL1,1,R1001P
781.564,0.275,397929,STUDY_ORIENT,n/a,n/a,2,6,KEY,n/a,KEY,NET,7,"[0, 0, 0]",-999,PAL1,1,R1001P
782.398,4.0,398346,STUDY_PAIR,n/a,wordpools/wordpool_EN.txt,2,6,KEY,n/a,KEY,NET,7,"[0, 0, 0]",-999,PAL1,1,R1001P
787.432,0.275,400863,STUDY_ORIENT,n/a,n/a,3,1,JEEP,n/a,MUD,JEEP,7,"[0, 0, 0]",-999,PAL1,1,R1001P
788.382,4.0,401338,STUDY_PAIR,n/a,wordpools/wordpool_EN.txt,3,1,JEEP,n/a,MUD,JEEP,7,"[0, 0, 0]",-999,PAL1,1,R1001P
793.416,0.275,403855,STUDY_ORIENT,n/a,n/a,4,2,JAIL,n/a,PEARL,JAIL,7,"[0, 0, 0]",-999,PAL1,1,R1001P
794.217,4.0,404256,STUDY_PAIR,n/a,wordpools/wordpool_EN.txt,4,2,JAIL,n/a,PEARL,JAIL,7,"[0, 0, 0]",-999,PAL1,1,R1001P
799.251,0.275,406772,STUDY_ORIENT,n/a,n/a,5,5,BUSH,n/a,HEART,BUSH,7,"[0, 0, 0]",-999,PAL1,1,R1001P
800.151,4.0,407222,STUDY_PAIR,n/a,wordpools/wordpool_EN.txt,5,5,BUSH,n/a,HEART,BUSH,7,"[0, 0, 0]",-999,PAL1,1,R1001P
805.185,0.275,409739,STUDY_ORIENT,n/a,n/a,6,4,BREAD,CAKE,BREAD,PASTE,7,"[0, 0, 0]",-999,PAL1,1,R1001P
806.152,4.0,410223,STUDY_PAIR,n/a,wordpools/wordpool_EN.txt,6,4,BREAD,CAKE,BREAD,PASTE,7,"[0, 0, 0]",-999,PAL1,1,R1001P
810.153,1.0,412223,START,n/a,n/a,-999,-999,n/a,n/a,n/a,n/a,7,"[-999, -999, -999]",-999,PAL1,1,R1001P
811.153,0.017,412723,MATH_START,n/a,n/a,-999,-999,n/a,n/a,n/a,n/a,7,"[0, 0, 0]",-999,PAL1,1,R1001P
811.17,27.155,412732,PROB,27.155,n/a,-999,-999,n/a,n/a,n/a,n/a,7,"[5, 6, 6]",17,PAL1,1,R1001P
838.325,0.017,426308,STOP,n/a,n/a,-999,-999,n/a,n/a,n/a,n/a,7,"[-999, -999, -999]",-999,PAL1,1,R1001P
838.342,0.0,426317,MATH_END,n/a,n/a,-999,-999,n/a,n/a,n/a,n/a,7,"[0, 0, 0]",-999,PAL1,1,R1001P
838.342,0.016,426317,TEST_START,n/a,n/a,-999,-999,n/a,n/a,n/a,n/a,7,"[0, 0, 0]",-999,PAL1,1,R1001P
838.358,0.275,426325,TEST_ORIENT,n/a,n/a,3,1,JEEP,n/a,MUD,JEEP,7,"[0, 0, 0]",-999,PAL1,1,R1001P
839.192,4.0,426742,TEST_PROBE,n/a,wordpools/wordpool_EN.txt,3,1,JEEP,n/a,MUD,JEEP,7,"[0, 0, 0]",-999,PAL1,1,R1001P
839.192,5.015,426742,REC_START,n/a,n/a,3,-999,n/a,n/a,n/a,n/a,7,"[0, 0, 0]",-999,PAL1,1,R1001P
844.207,0.002,429249,REC_EVENT,5.015,n/a,3,1,JEEP,<>,MUD,JEEP,7,"[0, 0, 0]",-999,PAL1,1,R1001P
844.209,0.017,429250,REC_END,n/a,n/a,3,-999,n/a,n/a,n/a,n/a,7,"[0, 0, 0]",-999,PAL1,1,R1001P
844.226,0.275,429259,TEST_ORIENT,n/a,n/a,4,2,JAIL,n/a,PEARL,JAIL,7,"[0, 0, 0]",-999,PAL1,1,R1001P
845.243,4.0,429767,TEST_PROBE,n/a,wordpools/wordpool_EN.txt,4,2,JAIL,n/a,PEARL,JAIL,7,"[0, 0, 0]",-999,PAL1,1,R1001P
845.243,5.015,429767,REC_START,n/a,n/a,4,-999,n/a,n/a,n/a,n/a,7,"[0, 0, 0]",-999,PAL1,1,R1001P
850.258,0.002,432275,REC_EVENT,5.015,n/a,4,2,JAIL,<>,PEARL,JAIL,7,"[0, 0, 0]",-999,PAL1,1,R1001P
850.26,0.017,432276,REC_END,n/a,n/a,4,-999,n/a,n/a,n/a,n/a,7,"[0, 0, 0]",-999,PAL1,1,R1001P
850.277,0.275,432284,TEST_ORIENT,n/a,n/a,1,3,DRUM,n/a,DRUM,TOAD,7,"[0, 0, 0]",-999,PAL1,1,R1001P
851.211,0.0,432751,REC_START,n/a,n/a,1,-999,n/a,n/a,n/a,n/a,7,"[0, 0, 0]",-999,PAL1,1,R1001P
851.211,4.0,432751,TEST_PROBE,n/a,wordpools/wordpool_EN.txt,1,3,DRUM,n/a,DRUM,TOAD,7,"[0, 0, 0]",-999,PAL1,1,R1001P
856.226,0.002,435258,REC_EVENT,5.015,n/a,1,3,DRUM,<>,DRUM,TOAD,7,"[0, 0, 0]",-999,PAL1,1,R1001P
856.228,0.017,435259,REC_END,n/a,n/a,1,-999,n/a,n/a,n/a,n/a,7,"[0, 0, 0]",-999,PAL1,1,R1001P
856.245,0.275,435268,TEST_ORIENT,n/a,n/a,6,4,BREAD,CAKE,BREAD,PASTE,7,"[0, 0, 0]",-999,PAL1,1,R1001P
857.062,4.0,435676,TEST_PROBE,n/a,wordpools/wordpool_EN.txt,6,4,BREAD,CAKE,BREAD,PASTE,7,"[0, 0, 0]",-999,PAL1,1,R1001P
857.063,2.979,435677,REC_START,n/a,n/a,6,-999,n/a,CAKE,n/a,n/a,7,"[0, 0, 0]",-999,PAL1,1,R1001P
860.042,2.047,437166,REC_EVENT,2.979,n/a,6,4,BREAD,CAKE,BREAD,PASTE,7,"[0, 0, 0]",-999,PAL1,1,R1001P
862.089,0.007,438190,REC_END,n/a,n/a,6,-999,n/a,n/a,n/a,n/a,7,"[0, 0, 0]",-999,PAL1,1,R1001P
862.096,0.275,438193,TEST_ORIENT,n/a,n/a,5,5,BUSH,n/a,HEART,BUSH,7,"[0, 0, 0]",-999,PAL1,1,R1001P
862.98,4.0,438635,TEST_PROBE,n/a,wordpools/wordpool_EN.txt,5,5,BUSH,n/a,HEART,BUSH,7,"[0, 0, 0]",-999,PAL1,1,R1001P
862.98,5.015,438635,REC_START,n/a,n/a,5,-999,n/a,n/a,n/a,n/a,7,"[0, 0, 0]",-999,PAL1,1,R1001P
867.995,0.002,441143,REC_EVENT,5.015,n/a,5,5,BUSH,<>,HEART,BUSH,7,"[0, 0, 0]",-999,PAL1,1,R1001P
867.997,0.017,441144,REC_END,n/a,n/a,5,-999,n/a,n/a,n/a,n/a,7,"[0, 0, 0]",-999,PAL1,1,R1001P
868.014,0.275,441152,TEST_ORIENT,n/a,n/a,2,6,KEY,n/a,KEY,NET,7,"[0, 0, 0]",-999,PAL1,1,R1001P
868.914,4.0,441602,TEST_PROBE,n/a,wordpools/wordpool_EN.txt,2,6,KEY,n/a,KEY,NET,7,"[0, 0, 0]",-999,PAL1,1,R1001P
868.915,5.009,441603,REC_START,n/a,n/a,2,-999,n/a,n/a,n/a,n/a,7,"[0, 0, 0]",-999,PAL1,1,R1001P
873.924,0.0,444107,REC_EVENT,5.009,n/a,2,6,KEY,<>,KEY,NET,7,"[0, 0, 0]",-999,PAL1,1,R1001P
873.924,1.649,444107,REC_END,n/a,n/a,2,-999,n/a,n/a,n/a,n/a,7,"[0, 0, 0]",-999,PAL1,1,R1001P
875.573,10.445,444931,ENCODING_START,n/a,n/a,0,-999,n/a,n/a,n/a,n/a,8,"[0, 0, 0]",-999,PAL1,1,R1001P
886.018,0.275,450154,STUDY_ORIENT,n/a,n/a,1,5,TOOL,n/a,TOOL,FLEA,8,"[0, 0, 0]",-999,PAL1,1,R1001P
886.801,4.0,450545,STUDY_PAIR,n/a,wordpools/wordpool_EN.txt,1,5,TOOL,n/a,TOOL,FLEA,8,"[0, 0, 0]",-999,PAL1,1,R1001P
891.835,0.275,453062,STUDY_ORIENT,n/a,n/a,2,6,WAND,n/a,SKI,WAND,8,"[0, 0, 0]",-999,PAL1,1,R1001P
892.769,4.0,453529,STUDY_PAIR,n/a,wordpools/wordpool_EN.txt,2,6,WAND,n/a,SKI,WAND,8,"[0, 0, 0]",-999,PAL1,1,R1001P
897.803,0.275,456046,STUDY_ORIENT,n/a,n/a,3,3,VINE,n/a,GUARD,VINE,8,"[0, 0, 0]",-999,PAL1,1,R1001P
898.586,4.0,456437,STUDY_PAIR,n/a,wordpools/wordpool_EN.txt,3,3,VINE,n/a,GUARD,VINE,8,"[0, 0, 0]",-999,PAL1,1,R1001P
903.62,0.275,458954,STUDY_ORIENT,n/a,n/a,4,2,BENCH,n/a,FORK,BENCH,8,"[0, 0, 0]",-999,PAL1,1,R1001P
904.421,4.0,459355,STUDY_PAIR,n/a,wordpools/wordpool_EN.txt,4,2,BENCH,n/a,FORK,BENCH,8,"[0, 0, 0]",-999,PAL1,1,R1001P
909.439,0.275,461863,STUDY_ORIENT,n/a,n/a,5,1,GRASS,JAR,JAR,GRASS,8,"[0, 0, 0]",-999,PAL1,1,R1001P
910.372,4.0,462330,STUDY_PAIR,n/a,wordpools/wordpool_EN.txt,5,1,GRASS,JAR,JAR,GRASS,8,"[0, 0, 0]",-999,PAL1,1,R1001P
915.39,0.275,464839,STUDY_ORIENT,n/a,n/a,6,4,LAMP,n/a,STRING,LAMP,8,"[0, 0, 0]",-999,PAL1,1,R1001P
916.374,4.0,465331,STUDY_PAIR,n/a,wordpools/wordpool_EN.txt,6,4,LAMP,n/a,STRING,LAMP,8,"[0, 0, 0]",-999,PAL1,1,R1001P
920.392,0.999,467340,START,n/a,n/a,-999,-999,n/a,n/a,n/a,n/a,8,"[-999, -999, -999]",-999,PAL1,1,R1001P
921.391,0.017,467839,MATH_START,n/a,n/a,-999,-999,n/a,n/a,n/a,n/a,8,"[0, 0, 0]",-999,PAL1,1,R1001P
921.408,11.319,467848,PROB,11.284,n/a,-999,-999,n/a,n/a,n/a,n/a,8,"[6, 5, 3]",14,PAL1,1,R1001P
932.727,10.67,473507,PROB,10.67,n/a,-999,-999,n/a,n/a,n/a,n/a,8,"[7, 6, 9]",22,PAL1,1,R1001P
943.397,0.015,478842,STOP,n/a,n/a,-999,-999,n/a,n/a,n/a,n/a,8,"[-999, -999, -999]",-999,PAL1,1,R1001P
943.412,0.0,478849,MATH_END,n/a,n/a,-999,-999,n/a,n/a,n/a,n/a,8,"[0, 0, 0]",-999,PAL1,1,R1001P
943.412,0.017,478849,TEST_START,n/a,n/a,-999,-999,n/a,n/a,n/a,n/a,8,"[0, 0, 0]",-999,PAL1,1,R1001P
943.429,0.275,478858,TEST_ORIENT,n/a,n/a,5,1,GRASS,JAR,JAR,GRASS,8,"[0, 0, 0]",-999,PAL1,1,R1001P
944.362,4.0,479324,TEST_PROBE,n/a,wordpools/wordpool_EN.txt,5,1,GRASS,JAR,JAR,GRASS,8,"[0, 0, 0]",-999,PAL1,1,R1001P
944.363,2.36,479325,REC_START,n/a,n/a,5,-999,n/a,JAR,n/a,n/a,8,"[0, 0, 0]",-999,PAL1,1,R1001P
946.723,2.649,480504,REC_EVENT,2.36,n/a,5,1,GRASS,JAR,JAR,GRASS,8,"[0, 0, 0]",-999,PAL1,1,R1001P
949.372,0.008,481829,REC_END,n/a,n/a,5,-999,n/a,n/a,n/a,n/a,8,"[0, 0, 0]",-999,PAL1,1,R1001P
949.38,0.275,481833,TEST_ORIENT,n/a,n/a,4,2,BENCH,n/a,FORK,BENCH,8,"[0, 0, 0]",-999,PAL1,1,R1001P
950.263,4.0,482274,TEST_PROBE,n/a,wordpools/wordpool_EN.txt,4,2,BENCH,n/a,FORK,BENCH,8,"[0, 0, 0]",-999,PAL1,1,R1001P
950.264,5.009,482275,REC_START,n/a,n/a,4,-999,n/a,n/a,n/a,n/a,8,"[0, 0, 0]",-999,PAL1,1,R1001P
955.273,0.0,484779,REC_EVENT,5.009,n/a,4,2,BENCH,<>,FORK,BENCH,8,"[0, 0, 0]",-999,PAL1,1,R1001P
955.273,0.008,484779,REC_END,n/a,n/a,4,-999,n/a,n/a,n/a,n/a,8,"[0, 0, 0]",-999,PAL1,1,R1001P
955.281,0.275,484783,TEST_ORIENT,n/a,n/a,3,3,VINE,n/a,GUARD,VINE,8,"[0, 0, 0]",-999,PAL1,1,R1001P
956.264,4.0,485275,TEST_PROBE,n/a,wordpools/wordpool_EN.txt,3,3,VINE,n/a,GUARD,VINE,8,"[0, 0, 0]",-999,PAL1,1,R1001P
956.265,5.009,485275,REC_START,n/a,n/a,3,-999,n/a,n/a,n/a,n/a,8,"[0, 0, 0]",-999,PAL1,1,R1001P
961.274,0.0,487780,REC_EVENT,5.009,n/a,3,3,VINE,<>,GUARD,VINE,8,"[0, 0, 0]",-999,PAL1,1,R1001P
961.274,0.008,487780,REC_END,n/a,n/a,3,-999,n/a,n/a,n/a,n/a,8,"[0, 0, 0]",-999,PAL1,1,R1001P
961.282,0.275,487784,TEST_ORIENT,n/a,n/a,6,4,LAMP,n/a,STRING,LAMP,8,"[0, 0, 0]",-999,PAL1,1,R1001P
962.232,4.0,488259,TEST_PROBE,n/a,wordpools/wordpool_EN.txt,6,4,LAMP,n/a,STRING,LAMP,8,"[0, 0, 0]",-999,PAL1,1,R1001P
962.233,5.008,488259,REC_START,n/a,n/a,6,-999,n/a,n/a,n/a,n/a,8,"[0, 0, 0]",-999,PAL1,1,R1001P
967.241,0.001,490763,REC_END,n/a,n/a,6,-999,n/a,n/a,n/a,n/a,8,"[0, 0, 0]",-999,PAL1,1,R1001P
967.242,0.008,490763,REC_EVENT,5.009,n/a,6,4,LAMP,<>,STRING,LAMP,8,"[0, 0, 0]",-999,PAL1,1,R1001P
967.25,0.275,490767,TEST_ORIENT,n/a,n/a,1,5,TOOL,n/a,TOOL,FLEA,8,"[0, 0, 0]",-999,PAL1,1,R1001P
968.083,4.0,491184,TEST_PROBE,n/a,wordpools/wordpool_EN.txt,1,5,TOOL,n/a,TOOL,FLEA,8,"[0, 0, 0]",-999,PAL1,1,R1001P
968.084,5.009,491184,REC_START,n/a,n/a,1,-999,n/a,n/a,n/a,n/a,8,"[0, 0, 0]",-999,PAL1,1,R1001P
973.093,0.0,493689,REC_EVENT,5.009,n/a,1,5,TOOL,<>,TOOL,FLEA,8,"[0, 0, 0]",-999,PAL1,1,R1001P
973.093,0.008,493689,REC_END,n/a,n/a,1,-999,n/a,n/a,n/a,n/a,8,"[0, 0, 0]",-999,PAL1,1,R1001P
973.101,0.275,493693,TEST_ORIENT,n/a,n/a,2,6,WAND,n/a,SKI,WAND,8,"[0, 0, 0]",-999,PAL1,1,R1001P
974.068,4.0,494176,TEST_PROBE,n/a,wordpools/wordpool_EN.txt,2,6,WAND,n/a,SKI,WAND,8,"[0, 0, 0]",-999,PAL1,1,R1001P
974.068,5.015,494176,REC_START,n/a,n/a,2,-999,n/a,n/a,n/a,n/a,8,"[0, 0, 0]",-999,PAL1,1,R1001P
979.083,0.002,496684,REC_EVENT,5.015,n/a,2,6,WAND,<>,SKI,WAND,8,"[0, 0, 0]",-999,PAL1,1,R1001P
979.085,1.896,496685,REC_END,n/a,n/a,2,-999,n/a,n/a,n/a,n/a,8,"[0, 0, 0]",-999,PAL1,1,R1001P
980.981,10.44,497633,ENCODING_START,n/a,n/a,0,-999,n/a,n/a,n/a,n/a,9,"[0, 0, 0]",-999,PAL1,1,R1001P
991.421,0.275,502852,STUDY_ORIENT,n/a,n/a,1,5,BAND,n/a,BAND,GOAT,9,"[0, 0, 0]",-999,PAL1,1,R1001P
992.238,4.0,503261,STUDY_PAIR,n/a,wordpools/wordpool_EN.txt,1,5,BAND,n/a,BAND,GOAT,9,"[0, 0, 0]",-999,PAL1,1,R1001P
997.256,0.275,505770,STUDY_ORIENT,n/a,n/a,2,4,DIME,n/a,DIME,BRUSH,9,"[0, 0, 0]",-999,PAL1,1,R1001P
998.173,4.0,506228,STUDY_PAIR,n/a,wordpools/wordpool_EN.txt,2,4,DIME,n/a,DIME,BRUSH,9,"[0, 0, 0]",-999,PAL1,1,R1001P
1003.207,0.275,508745,STUDY_ORIENT,n/a,n/a,3,3,CLOUD,n/a,CLOUD,WING,9,"[0, 0, 0]",-999,PAL1,1,R1001P
1004.04,4.0,509161,STUDY_PAIR,n/a,wordpools/wordpool_EN.txt,3,3,CLOUD,n/a,CLOUD,WING,9,"[0, 0, 0]",-999,PAL1,1,R1001P
1009.058,0.275,511670,STUDY_ORIENT,n/a,n/a,4,2,ELF,n/a,MAP,ELF,9,"[0, 0, 0]",-999,PAL1,1,R1001P
1009.991,4.0,512137,STUDY_PAIR,n/a,wordpools/wordpool_EN.txt,4,2,ELF,n/a,MAP,ELF,9,"[0, 0, 0]",-999,PAL1,1,R1001P
1015.009,0.275,514646,STUDY_ORIENT,n/a,n/a,5,1,BAT,n/a,WEED,BAT,9,"[0, 0, 0]",-999,PAL1,1,R1001P
1015.809,4.0,515046,STUDY_PAIR,n/a,wordpools/wordpool_EN.txt,5,1,BAT,n/a,WEED,BAT,9,"[0, 0, 0]",-999,PAL1,1,R1001P
1020.827,0.275,517554,STUDY_ORIENT,n/a,n/a,6,6,HOLE,n/a,WOLF,HOLE,9,"[0, 0, 0]",-999,PAL1,1,R1001P
1021.643,4.0,517962,STUDY_PAIR,n/a,wordpools/wordpool_EN.txt,6,6,HOLE,n/a,WOLF,HOLE,9,"[0, 0, 0]",-999,PAL1,1,R1001P
1025.661,0.999,519971,START,n/a,n/a,-999,-999,n/a,n/a,n/a,n/a,9,"[-999, -999, -999]",-999,PAL1,1,R1001P
1026.66,0.017,520471,MATH_START,n/a,n/a,-999,-999,n/a,n/a,n/a,n/a,9,"[0, 0, 0]",-999,PAL1,1,R1001P
1026.677,18.92,520479,PROB,18.896,n/a,-999,-999,n/a,n/a,n/a,n/a,9,"[5, 2, 7]",14,PAL1,1,R1001P
1045.597,7.32,529939,PROB,7.32,n/a,-999,-999,n/a,n/a,n/a,n/a,9,"[8, 9, 1]",18,PAL1,1,R1001P
1052.917,0.016,533599,STOP,n/a,n/a,-999,-999,n/a,n/a,n/a,n/a,9,"[-999, -999, -999]",-999,PAL1,1,R1001P
1052.933,0.0,533607,MATH_END,n/a,n/a,-999,-999,n/a,n/a,n/a,n/a,9,"[0, 0, 0]",-999,PAL1,1,R1001P
1052.933,0.017,533607,TEST_START,n/a,n/a,-999,-999,n/a,n/a,n/a,n/a,9,"[0, 0, 0]",-999,PAL1,1,R1001P
1052.95,0.275,533615,TEST_ORIENT,n/a,n/a,5,1,BAT,n/a,WEED,BAT,9,"[0, 0, 0]",-999,PAL1,1,R1001P
1053.917,0.0,534099,REC_START,n/a,n/a,5,-999,n/a,n/a,n/a,n/a,9,"[0, 0, 0]",-999,PAL1,1,R1001P
1053.917,4.0,534099,TEST_PROBE,n/a,wordpools/wordpool_EN.txt,5,1,BAT,n/a,WEED,BAT,9,"[0, 0, 0]",-999,PAL1,1,R1001P
1058.942,0.002,536611,REC_END,n/a,n/a,5,-999,n/a,n/a,n/a,n/a,9,"[0, 0, 0]",-999,PAL1,1,R1001P
1058.944,0.007,536612,REC_EVENT,5.027,n/a,5,1,BAT,<>,WEED,BAT,9,"[0, 0, 0]",-999,PAL1,1,R1001P
1058.951,0.275,536615,TEST_ORIENT,n/a,n/a,4,2,ELF,n/a,MAP,ELF,9,"[0, 0, 0]",-999,PAL1,1,R1001P
1059.751,4.0,537015,TEST_PROBE,n/a,wordpools/wordpool_EN.txt,4,2,ELF,n/a,MAP,ELF,9,"[0, 0, 0]",-999,PAL1,1,R1001P
1059.752,5.026,537016,REC_START,n/a,n/a,4,-999,n/a,n/a,n/a,n/a,9,"[0, 0, 0]",-999,PAL1,1,R1001P
1064.778,0.001,539529,REC_END,n/a,n/a,4,-999,n/a,n/a,n/a,n/a,9,"[0, 0, 0]",-999,PAL1,1,R1001P
1064.779,0.006,539529,REC_EVENT,5.027,n/a,4,2,ELF,<>,MAP,ELF,9,"[0, 0, 0]",-999,PAL1,1,R1001P
1064.785,0.275,539532,TEST_ORIENT,n/a,n/a,3,3,CLOUD,n/a,CLOUD,WING,9,"[0, 0, 0]",-999,PAL1,1,R1001P
1065.618,4.0,539949,TEST_PROBE,n/a,wordpools/wordpool_EN.txt,3,3,CLOUD,n/a,CLOUD,WING,9,"[0, 0, 0]",-999,PAL1,1,R1001P
1065.619,5.015,539949,REC_START,n/a,n/a,3,-999,n/a,n/a,n/a,n/a,9,"[0, 0, 0]",-999,PAL1,1,R1001P
1070.634,0.001,542457,REC_EVENT,5.015,n/a,3,3,CLOUD,<>,CLOUD,WING,9,"[0, 0, 0]",-999,PAL1,1,R1001P
1070.635,0.017,542457,REC_END,n/a,n/a,3,-999,n/a,n/a,n/a,n/a,9,"[0, 0, 0]",-999,PAL1,1,R1001P
1070.652,0.275,542466,TEST_ORIENT,n/a,n/a,2,4,DIME,n/a,DIME,BRUSH,9,"[0, 0, 0]",-999,PAL1,1,R1001P
1071.52,4.0,542900,TEST_PROBE,n/a,wordpools/wordpool_EN.txt,2,4,DIME,n/a,DIME,BRUSH,9,"[0, 0, 0]",-999,PAL1,1,R1001P
1071.52,5.015,542900,REC_START,n/a,n/a,2,-999,n/a,n/a,n/a,n/a,9,"[0, 0, 0]",-999,PAL1,1,R1001P
1076.535,0.002,545407,REC_EVENT,5.015,n/a,2,4,DIME,<>,DIME,BRUSH,9,"[0, 0, 0]",-999,PAL1,1,R1001P
1076.537,0.017,545408,REC_END,n/a,n/a,2,-999,n/a,n/a,n/a,n/a,9,"[0, 0, 0]",-999,PAL1,1,R1001P
1076.554,0.275,545416,TEST_ORIENT,n/a,n/a,1,5,BAND,n/a,BAND,GOAT,9,"[0, 0, 0]",-999,PAL1,1,R1001P
1077.505,4.0,545892,TEST_PROBE,n/a,wordpools/wordpool_EN.txt,1,5,BAND,n/a,BAND,GOAT,9,"[0, 0, 0]",-999,PAL1,1,R1001P
1077.505,5.015,545892,REC_START,n/a,n/a,1,-999,n/a,n/a,n/a,n/a,9,"[0, 0, 0]",-999,PAL1,1,R1001P
1082.52,0.002,548399,REC_EVENT,5.015,n/a,1,5,BAND,<>,BAND,GOAT,9,"[0, 0, 0]",-999,PAL1,1,R1001P
1082.522,0.017,548400,REC_END,n/a,n/a,1,-999,n/a,n/a,n/a,n/a,9,"[0, 0, 0]",-999,PAL1,1,R1001P
1082.539,0.275,548409,TEST_ORIENT,n/a,n/a,6,6,HOLE,n/a,WOLF,HOLE,9,"[0, 0, 0]",-999,PAL1,1,R1001P
1083.456,4.0,548867,TEST_PROBE,n/a,wordpools/wordpool_EN.txt,6,6,HOLE,n/a,WOLF,HOLE,9,"[0, 0, 0]",-999,PAL1,1,R1001P
1083.456,5.017,548867,REC_START,n/a,n/a,6,-999,n/a,n/a,n/a,n/a,9,"[0, 0, 0]",-999,PAL1,1,R1001P
1088.473,0.004,551376,REC_END,n/a,n/a,6,-999,n/a,n/a,n/a,n/a,9,"[0, 0, 0]",-999,PAL1,1,R1001P
1088.477,3.872,551378,REC_EVENT,5.021,n/a,6,6,HOLE,<>,WOLF,HOLE,9,"[0, 0, 0]",-999,PAL1,1,R1001P
1092.349,10.444,553314,ENCODING_START,n/a,n/a,0,-999,n/a,n/a,n/a,n/a,10,"[0, 0, 0]",-999,PAL1,1,R1001P
1102.793,0.275,558535,STUDY_ORIENT,n/a,n/a,1,1,ROAD,SCHOOL,ROAD,SCHOOL,10,"[0, 0, 0]",-999,PAL1,1,R1001P
1103.743,4.0,559010,STUDY_PAIR,n/a,wordpools/wordpool_EN.txt,1,1,ROAD,SCHOOL,ROAD,SCHOOL,10,"[0, 0, 0]",-999,PAL1,1,R1001P
1108.777,0.275,561527,STUDY_ORIENT,n/a,n/a,2,4,SHELL,n/a,CLIFF,SHELL,10,"[0, 0, 0]",-999,PAL1,1,R1001P
1109.626,4.0,561952,STUDY_PAIR,n/a,wordpools/wordpool_EN.txt,2,4,SHELL,n/a,CLIFF,SHELL,10,"[0, 0, 0]",-999,PAL1,1,R1001P
1114.644,0.275,564460,STUDY_ORIENT,n/a,n/a,3,3,SNAIL,SNAKE,FISH,SNAIL,10,"[0, 0, 0]",-999,PAL1,1,R1001P
1115.495,4.0,564886,STUDY_PAIR,n/a,wordpools/wordpool_EN.txt,3,3,SNAIL,SNAKE,FISH,SNAIL,10,"[0, 0, 0]",-999,PAL1,1,R1001P
1120.513,0.275,567395,STUDY_ORIENT,n/a,n/a,4,6,TREE,ANT,TREE,EEL,10,"[0, 0, 0]",-999,PAL1,1,R1001P
1121.496,4.0,567886,STUDY_PAIR,n/a,wordpools/wordpool_EN.txt,4,6,TREE,ANT,TREE,EEL,10,"[0, 0, 0]",-999,PAL1,1,R1001P
1126.514,0.275,570395,STUDY_ORIENT,n/a,n/a,5,5,MAZE,BOY,MAZE,BOY,10,"[0, 0, 0]",-999,PAL1,1,R1001P
1127.448,4.0,570862,STUDY_PAIR,n/a,wordpools/wordpool_EN.txt,5,5,MAZE,BOY,MAZE,BOY,10,"[0, 0, 0]",-999,PAL1,1,R1001P
1132.482,0.275,573379,STUDY_ORIENT,n/a,n/a,6,2,FOOT,n/a,SHIP,FOOT,10,"[0, 0, 0]",-999,PAL1,1,R1001P
1133.332,4.0,573804,STUDY_PAIR,n/a,wordpools/wordpool_EN.txt,6,2,FOOT,n/a,SHIP,FOOT,10,"[0, 0, 0]",-999,PAL1,1,R1001P
1137.35,0.999,575813,START,n/a,n/a,-999,-999,n/a,n/a,n/a,n/a,10,"[-999, -999, -999]",-999,PAL1,1,R1001P
1138.349,0.017,576312,MATH_START,n/a,n/a,-999,-999,n/a,n/a,n/a,n/a,10,"[0, 0, 0]",-999,PAL1,1,R1001P
1138.366,11.553,576321,PROB,11.519,n/a,-999,-999,n/a,n/a,n/a,n/a,10,"[5, 4, 4]",13,PAL1,1,R1001P
1149.919,10.222,582097,PROB,10.222,n/a,-999,-999,n/a,n/a,n/a,n/a,10,"[8, 7, 3]",18,PAL1,1,R1001P
1160.141,0.013,587208,STOP,n/a,n/a,-999,-999,n/a,n/a,n/a,n/a,10,"[-999, -999, -999]",-999,PAL1,1,R1001P
1160.154,0.0,587214,MATH_END,n/a,n/a,-999,-999,n/a,n/a,n/a,n/a,10,"[0, 0, 0]",-999,PAL1,1,R1001P
1160.154,0.016,587214,TEST_START,n/a,n/a,-999,-999,n/a,n/a,n/a,n/a,10,"[0, 0, 0]",-999,PAL1,1,R1001P
1160.17,0.275,587222,TEST_ORIENT,n/a,n/a,1,1,ROAD,SCHOOL,ROAD,SCHOOL,10,"[0, 0, 0]",-999,PAL1,1,R1001P
1161.087,4.0,587681,TEST_PROBE,n/a,wordpools/wordpool_EN.txt,1,1,ROAD,SCHOOL,ROAD,SCHOOL,10,"[0, 0, 0]",-999,PAL1,1,R1001P
1161.088,1.73,587681,REC_START,n/a,n/a,1,-999,n/a,SCHOOL,n/a,n/a,10,"[0, 0, 0]",-999,PAL1,1,R1001P
1162.818,3.279,588546,REC_EVENT,1.73,n/a,1,1,ROAD,SCHOOL,ROAD,SCHOOL,10,"[0, 0, 0]",-999,PAL1,1,R1001P
1166.097,0.008,590186,REC_END,n/a,n/a,1,-999,n/a,n/a,n/a,n/a,10,"[0, 0, 0]",-999,PAL1,1,R1001P
1166.105,0.275,590190,TEST_ORIENT,n/a,n/a,6,2,FOOT,n/a,SHIP,FOOT,10,"[0, 0, 0]",-999,PAL1,1,R1001P
1167.022,4.0,590648,TEST_PROBE,n/a,wordpools/wordpool_EN.txt,6,2,FOOT,n/a,SHIP,FOOT,10,"[0, 0, 0]",-999,PAL1,1,R1001P
1167.022,5.015,590648,REC_START,n/a,n/a,6,-999,n/a,n/a,n/a,n/a,10,"[0, 0, 0]",-999,PAL1,1,R1001P
1172.037,0.002,593155,REC_EVENT,5.015,n/a,6,2,FOOT,<>,SHIP,FOOT,10,"[0, 0, 0]",-999,PAL1,1,R1001P
1172.039,0.017,593156,REC_END,n/a,n/a,6,-999,n/a,n/a,n/a,n/a,10,"[0, 0, 0]",-999,PAL1,1,R1001P
1172.056,0.275,593165,TEST_ORIENT,n/a,n/a,3,3,SNAIL,SNAKE,FISH,SNAIL,10,"[0, 0, 0]",-999,PAL1,1,R1001P
1173.056,4.0,593665,TEST_PROBE,n/a,wordpools/wordpool_EN.txt,3,3,SNAIL,SNAKE,FISH,SNAIL,10,"[0, 0, 0]",-999,PAL1,1,R1001P
1173.057,4.54,593665,REC_START,n/a,n/a,3,-999,n/a,SNAKE,n/a,n/a,10,"[0, 0, 0]",-999,PAL1,1,R1001P
1177.597,0.468,595935,REC_EVENT,4.54,n/a,3,3,SNAIL,SNAKE,FISH,SNAIL,10,"[0, 0, 0]",-999,PAL1,1,R1001P
1178.065,0.009,596169,REC_END,n/a,n/a,3,-999,n/a,n/a,n/a,n/a,10,"[0, 0, 0]",-999,PAL1,1,R1001P
1178.074,0.275,596174,TEST_ORIENT,n/a,n/a,2,4,SHELL,n/a,CLIFF,SHELL,10,"[0, 0, 0]",-999,PAL1,1,R1001P
1178.907,4.0,596590,TEST_PROBE,n/a,wordpools/wordpool_EN.txt,2,4,SHELL,n/a,CLIFF,SHELL,10,"[0, 0, 0]",-999,PAL1,1,R1001P
1178.908,5.008,596591,REC_START,n/a,n/a,2,-999,n/a,n/a,n/a,n/a,10,"[0, 0, 0]",-999,PAL1,1,R1001P
1183.916,0.001,599095,REC_END,n/a,n/a,2,-999,n/a,n/a,n/a,n/a,10,"[0, 0, 0]",-999,PAL1,1,R1001P
1183.917,0.008,599095,REC_EVENT,5.009,n/a,2,4,SHELL,<>,CLIFF,SHELL,10,"[0, 0, 0]",-999,PAL1,1,R1001P
1183.925,0.275,599099,TEST_ORIENT,n/a,n/a,5,5,MAZE,BOY,MAZE,BOY,10,"[0, 0, 0]",-999,PAL1,1,R1001P
1184.892,4.0,599583,TEST_PROBE,n/a,wordpools/wordpool_EN.txt,5,5,MAZE,BOY,MAZE,BOY,10,"[0, 0, 0]",-999,PAL1,1,R1001P
1184.892,1.542,599583,REC_START,n/a,n/a,5,-999,n/a,BOY,n/a,n/a,10,"[0, 0, 0]",-999,PAL1,1,R1001P
1186.434,3.475,600354,REC_EVENT,1.542,n/a,5,5,MAZE,BOY,MAZE,BOY,10,"[0, 0, 0]",-999,PAL1,1,R1001P
1189.909,0.017,602091,REC_END,n/a,n/a,5,-999,n/a,n/a,n/a,n/a,10,"[0, 0, 0]",-999,PAL1,1,R1001P
1189.926,0.275,602099,TEST_ORIENT,n/a,n/a,4,6,TREE,ANT,TREE,EEL,10,"[0, 0, 0]",-999,PAL1,1,R1001P
1190.909,4.0,602591,TEST_PROBE,n/a,wordpools/wordpool_EN.txt,4,6,TREE,ANT,TREE,EEL,10,"[0, 0, 0]",-999,PAL1,1,R1001P
1190.91,2.049,602591,REC_START,n/a,n/a,4,-999,n/a,ANT,n/a,n/a,10,"[0, 0, 0]",-999,PAL1,1,R1001P
1192.959,2.951,603616,REC_EVENT,2.049,n/a,4,6,TREE,ANT,TREE,EEL,10,"[0, 0, 0]",-999,PAL1,1,R1001P
1195.91,1.879,605091,REC_END,n/a,n/a,4,-999,n/a,n/a,n/a,n/a,10,"[0, 0, 0]",-999,PAL1,1,R1001P
1197.789,10.441,606031,ENCODING_START,n/a,n/a,0,-999,n/a,n/a,n/a,n/a,11,"[0, 0, 0]",-999,PAL1,1,R1001P
1208.23,0.275,611251,STUDY_ORIENT,n/a,n/a,1,5,SUIT,n/a,SQUARE,SUIT,11,"[0, 0, 0]",-999,PAL1,1,R1001P
1209.047,4.0,611659,STUDY_PAIR,n/a,wordpools/wordpool_EN.txt,1,5,SUIT,n/a,SQUARE,SUIT,11,"[0, 0, 0]",-999,PAL1,1,R1001P
1214.081,0.275,614176,STUDY_ORIENT,n/a,n/a,2,4,TOE,n/a,CAKE,TOE,11,"[0, 0, 0]",-999,PAL1,1,R1001P
1214.898,4.0,614585,STUDY_PAIR,n/a,wordpools/wordpool_EN.txt,2,4,TOE,n/a,CAKE,TOE,11,"[0, 0, 0]",-999,PAL1,1,R1001P
1219.932,0.275,617102,STUDY_ORIENT,n/a,n/a,3,1,BROOM,n/a,BANK,BROOM,11,"[0, 0, 0]",-999,PAL1,1,R1001P
1220.799,4.0,617535,STUDY_PAIR,n/a,wordpools/wordpool_EN.txt,3,1,BROOM,n/a,BANK,BROOM,11,"[0, 0, 0]",-999,PAL1,1,R1001P
1225.833,0.275,620052,STUDY_ORIENT,n/a,n/a,4,6,LIP,CHIN,RIB,LIP,11,"[0, 0, 0]",-999,PAL1,1,R1001P
1226.85,4.0,620560,STUDY_PAIR,n/a,wordpools/wordpool_EN.txt,4,6,LIP,CHIN,RIB,LIP,11,"[0, 0, 0]",-999,PAL1,1,R1001P
1231.884,0.275,623077,STUDY_ORIENT,n/a,n/a,5,3,ROOF,n/a,FAN,ROOF,11,"[0, 0, 0]",-999,PAL1,1,R1001P
1232.667,4.0,623469,STUDY_PAIR,n/a,wordpools/wordpool_EN.txt,5,3,ROOF,n/a,FAN,ROOF,11,"[0, 0, 0]",-999,PAL1,1,R1001P
1237.701,0.275,625986,STUDY_ORIENT,n/a,n/a,6,2,BEAK,n/a,BEAK,OWL,11,"[0, 0, 0]",-999,PAL1,1,R1001P
1238.469,4.0,626370,STUDY_PAIR,n/a,wordpools/wordpool_EN.txt,6,2,BEAK,n/a,BEAK,OWL,11,"[0, 0, 0]",-999,PAL1,1,R1001P
1242.487,0.999,628379,START,n/a,n/a,-999,-999,n/a,n/a,n/a,n/a,11,"[-999, -999, -999]",-999,PAL1,1,R1001P
1243.486,0.017,628878,MATH_START,n/a,n/a,-999,-999,n/a,n/a,n/a,n/a,11,"[0, 0, 0]",-999,PAL1,1,R1001P
1243.503,33.902,628887,PROB,33.902,n/a,-999,-999,n/a,n/a,n/a,n/a,11,"[1, 8, 5]",14,PAL1,1,R1001P
1277.405,0.005,645837,STOP,n/a,n/a,-999,-999,n/a,n/a,n/a,n/a,11,"[-999, -999, -999]",-999,PAL1,1,R1001P
1277.41,0.0,645839,TEST_START,n/a,n/a,-999,-999,n/a,n/a,n/a,n/a,11,"[0, 0, 0]",-999,PAL1,1,R1001P
1277.41,0.016,645839,MATH_END,n/a,n/a,-999,-999,n/a,n/a,n/a,n/a,11,"[0, 0, 0]",-999,PAL1,1,R1001P
1277.426,0.275,645847,TEST_ORIENT,n/a,n/a,3,1,BROOM,n/a,BANK,BROOM,11,"[0, 0, 0]",-999,PAL1,1,R1001P
1278.227,4.0,646248,TEST_PROBE,n/a,wordpools/wordpool_EN.txt,3,1,BROOM,n/a,BANK,BROOM,11,"[0, 0, 0]",-999,PAL1,1,R1001P
1278.227,5.026,646248,REC_START,n/a,n/a,3,-999,n/a,n/a,n/a,n/a,11,"[0, 0, 0]",-999,PAL1,1,R1001P
1283.253,0.001,648760,REC_END,n/a,n/a,3,-999,n/a,n/a,n/a,n/a,11,"[0, 0, 0]",-999,PAL1,1,R1001P
1283.254,0.007,648761,REC_EVENT,5.027,n/a,3,1,BROOM,<>,BANK,BROOM,11,"[0, 0, 0]",-999,PAL1,1,R1001P
1283.261,0.275,648764,TEST_ORIENT,n/a,n/a,6,2,BEAK,n/a,BEAK,OWL,11,"[0, 0, 0]",-999,PAL1,1,R1001P
1284.061,0.0,649164,REC_START,n/a,n/a,6,-999,n/a,n/a,n/a,n/a,11,"[0, 0, 0]",-999,PAL1,1,R1001P
1284.061,4.0,649164,TEST_PROBE,n/a,wordpools/wordpool_EN.txt,6,2,BEAK,n/a,BEAK,OWL,11,"[0, 0, 0]",-999,PAL1,1,R1001P
1289.088,0.0,651678,REC_END,n/a,n/a,6,-999,n/a,n/a,n/a,n/a,11,"[0, 0, 0]",-999,PAL1,1,R1001P
1289.088,0.007,651678,REC_EVENT,5.027,n/a,6,2,BEAK,<>,BEAK,OWL,11,"[0, 0, 0]",-999,PAL1,1,R1001P
1289.095,0.275,651681,TEST_ORIENT,n/a,n/a,5,3,ROOF,n/a,FAN,ROOF,11,"[0, 0, 0]",-999,PAL1,1,R1001P
1290.012,4.0,652140,TEST_PROBE,n/a,wordpools/wordpool_EN.txt,5,3,ROOF,n/a,FAN,ROOF,11,"[0, 0, 0]",-999,PAL1,1,R1001P
1290.013,5.009,652140,REC_START,n/a,n/a,5,-999,n/a,n/a,n/a,n/a,11,"[0, 0, 0]",-999,PAL1,1,R1001P
1295.022,0.0,654645,REC_EVENT,5.009,n/a,5,3,ROOF,<>,FAN,ROOF,11,"[0, 0, 0]",-999,PAL1,1,R1001P
1295.022,0.008,654645,REC_END,n/a,n/a,5,-999,n/a,n/a,n/a,n/a,11,"[0, 0, 0]",-999,PAL1,1,R1001P
1295.03,0.275,654649,TEST_ORIENT,n/a,n/a,2,4,TOE,n/a,CAKE,TOE,11,"[0, 0, 0]",-999,PAL1,1,R1001P
1295.98,4.0,655124,TEST_PROBE,n/a,wordpools/wordpool_EN.txt,2,4,TOE,n/a,CAKE,TOE,11,"[0, 0, 0]",-999,PAL1,1,R1001P
1295.98,5.015,655124,REC_START,n/a,n/a,2,-999,n/a,n/a,n/a,n/a,11,"[0, 0, 0]",-999,PAL1,1,R1001P
1300.995,0.002,657631,REC_EVENT,5.015,n/a,2,4,TOE,<>,CAKE,TOE,11,"[0, 0, 0]",-999,PAL1,1,R1001P
1300.997,0.017,657632,REC_END,n/a,n/a,2,-999,n/a,n/a,n/a,n/a,11,"[0, 0, 0]",-999,PAL1,1,R1001P
1301.014,0.275,657640,TEST_ORIENT,n/a,n/a,1,5,SUIT,n/a,SQUARE,SUIT,11,"[0, 0, 0]",-999,PAL1,1,R1001P
1301.848,4.0,658057,TEST_PROBE,n/a,wordpools/wordpool_EN.txt,1,5,SUIT,n/a,SQUARE,SUIT,11,"[0, 0, 0]",-999,PAL1,1,R1001P
1301.848,5.015,658057,REC_START,n/a,n/a,1,-999,n/a,n/a,n/a,n/a,11,"[0, 0, 0]",-999,PAL1,1,R1001P
1306.863,0.002,660565,REC_EVENT,5.015,n/a,1,5,SUIT,<>,SQUARE,SUIT,11,"[0, 0, 0]",-999,PAL1,1,R1001P
1306.865,0.017,660566,REC_END,n/a,n/a,1,-999,n/a,n/a,n/a,n/a,11,"[0, 0, 0]",-999,PAL1,1,R1001P
1306.882,0.275,660574,TEST_ORIENT,n/a,n/a,4,6,LIP,CHIN,RIB,LIP,11,"[0, 0, 0]",-999,PAL1,1,R1001P
1307.799,0.0,661033,REC_START,n/a,n/a,4,-999,n/a,CHIN,n/a,n/a,11,"[0, 0, 0]",-999,PAL1,1,R1001P
1307.799,4.0,661033,TEST_PROBE,n/a,wordpools/wordpool_EN.txt,4,6,LIP,CHIN,RIB,LIP,11,"[0, 0, 0]",-999,PAL1,1,R1001P
1308.992,3.824,661629,REC_EVENT,1.193,n/a,4,6,LIP,CHIN,RIB,LIP,11,"[0, 0, 0]",-999,PAL1,1,R1001P
1312.816,2.772,663541,REC_END,n/a,n/a,4,-999,n/a,n/a,n/a,n/a,11,"[0, 0, 0]",-999,PAL1,1,R1001P
1315.588,10.448,664927,ENCODING_START,n/a,n/a,0,-999,n/a,n/a,n/a,n/a,12,"[0, 0, 0]",-999,PAL1,1,R1001P
1326.036,0.275,670151,STUDY_ORIENT,n/a,n/a,1,5,MULE,n/a,MULE,STICK,12,"[0, 0, 0]",-999,PAL1,1,R1001P
1326.819,4.0,670542,STUDY_PAIR,n/a,wordpools/wordpool_EN.txt,1,5,MULE,n/a,MULE,STICK,12,"[0, 0, 0]",-999,PAL1,1,R1001P
1331.837,0.275,673051,STUDY_ORIENT,n/a,n/a,2,2,WOOD,n/a,WOOD,FOAM,12,"[0, 0, 0]",-999,PAL1,1,R1001P
1332.72,4.0,673493,STUDY_PAIR,n/a,wordpools/wordpool_EN.txt,2,2,WOOD,n/a,WOOD,FOAM,12,"[0, 0, 0]",-999,PAL1,1,R1001P
1337.738,0.275,676001,STUDY_ORIENT,n/a,n/a,3,3,FENCE,n/a,FENCE,STORE,12,"[0, 0, 0]",-999,PAL1,1,R1001P
1338.587,4.0,676426,STUDY_PAIR,n/a,wordpools/wordpool_EN.txt,3,3,FENCE,n/a,FENCE,STORE,12,"[0, 0, 0]",-999,PAL1,1,R1001P
1343.605,0.275,678935,STUDY_ORIENT,n/a,n/a,4,4,WAVE,n/a,SUN,WAVE,12,"[0, 0, 0]",-999,PAL1,1,R1001P
1344.473,4.0,679369,STUDY_PAIR,n/a,wordpools/wordpool_EN.txt,4,4,WAVE,n/a,SUN,WAVE,12,"[0, 0, 0]",-999,PAL1,1,R1001P
1349.507,0.275,681886,STUDY_ORIENT,n/a,n/a,5,1,BAG,SCHOOL,BAG,STOOL,12,"[0, 0, 0]",-999,PAL1,1,R1001P
1350.374,4.0,682319,STUDY_PAIR,n/a,wordpools/wordpool_EN.txt,5,1,BAG,SCHOOL,BAG,STOOL,12,"[0, 0, 0]",-999,PAL1,1,R1001P
1355.408,0.275,684836,STUDY_ORIENT,n/a,n/a,6,6,DITCH,THREAD,DITCH,THREAD,12,"[0, 0, 0]",-999,PAL1,1,R1001P
1356.258,4.0,685261,STUDY_PAIR,n/a,wordpools/wordpool_EN.txt,6,6,DITCH,THREAD,DITCH,THREAD,12,"[0, 0, 0]",-999,PAL1,1,R1001P
1360.259,1.0,687261,START,n/a,n/a,-999,-999,n/a,n/a,n/a,n/a,12,"[-999, -999, -999]",-999,PAL1,1,R1001P
1361.259,0.017,687761,MATH_START,n/a,n/a,-999,-999,n/a,n/a,n/a,n/a,12,"[0, 0, 0]",-999,PAL1,1,R1001P
1361.276,8.785,687770,PROB,8.761,n/a,-999,-999,n/a,n/a,n/a,n/a,12,"[9, 5, 9]",24,PAL1,1,R1001P
1370.061,5.851,692162,PROB,5.824,n/a,-999,-999,n/a,n/a,n/a,n/a,12,"[9, 2, 4]",15,PAL1,1,R1001P
1375.912,5.381,695087,PROB,5.381,n/a,-999,-999,n/a,n/a,n/a,n/a,12,"[7, 8, 1]",16,PAL1,1,R1001P
1381.293,0.004,697778,STOP,n/a,n/a,-999,-999,n/a,n/a,n/a,n/a,12,"[-999, -999, -999]",-999,PAL1,1,R1001P
1381.297,0.0,697780,TEST_START,n/a,n/a,-999,-999,n/a,n/a,n/a,n/a,12,"[0, 0, 0]",-999,PAL1,1,R1001P
1381.297,0.016,697780,MATH_END,n/a,n/a,-999,-999,n/a,n/a,n/a,n/a,12,"[0, 0, 0]",-999,PAL1,1,R1001P
1381.313,0.275,697788,TEST_ORIENT,n/a,n/a,5,1,BAG,SCHOOL,BAG,STOOL,12,"[0, 0, 0]",-999,PAL1,1,R1001P
1382.147,4.0,698205,TEST_PROBE,n/a,wordpools/wordpool_EN.txt,5,1,BAG,SCHOOL,BAG,STOOL,12,"[0, 0, 0]",-999,PAL1,1,R1001P
1382.148,2.06,698205,REC_START,n/a,n/a,5,-999,n/a,SCHOOL,n/a,n/a,12,"[0, 0, 0]",-999,PAL1,1,R1001P
1384.208,2.964,699235,REC_EVENT,2.06,n/a,5,1,BAG,SCHOOL,BAG,STOOL,12,"[0, 0, 0]",-999,PAL1,1,R1001P
1387.172,0.009,700717,REC_END,n/a,n/a,5,-999,n/a,n/a,n/a,n/a,12,"[0, 0, 0]",-999,PAL1,1,R1001P
1387.181,0.275,700722,TEST_ORIENT,n/a,n/a,2,2,WOOD,n/a,WOOD,FOAM,12,"[0, 0, 0]",-999,PAL1,1,R1001P
1388.164,4.0,701213,TEST_PROBE,n/a,wordpools/wordpool_EN.txt,2,2,WOOD,n/a,WOOD,FOAM,12,"[0, 0, 0]",-999,PAL1,1,R1001P
1388.165,5.008,701214,REC_START,n/a,n/a,2,-999,n/a,n/a,n/a,n/a,12,"[0, 0, 0]",-999,PAL1,1,R1001P
1393.173,0.001,703717,REC_END,n/a,n/a,2,-999,n/a,n/a,n/a,n/a,12,"[0, 0, 0]",-999,PAL1,1,R1001P
1393.174,0.008,703718,REC_EVENT,5.009,n/a,2,2,WOOD,<>,WOOD,FOAM,12,"[0, 0, 0]",-999,PAL1,1,R1001P
1393.182,0.275,703722,TEST_ORIENT,n/a,n/a,3,3,FENCE,n/a,FENCE,STORE,12,"[0, 0, 0]",-999,PAL1,1,R1001P
1394.166,4.0,704214,TEST_PROBE,n/a,wordpools/wordpool_EN.txt,3,3,FENCE,n/a,FENCE,STORE,12,"[0, 0, 0]",-999,PAL1,1,R1001P
1394.166,5.025,704214,REC_START,n/a,n/a,3,-999,n/a,n/a,n/a,n/a,12,"[0, 0, 0]",-999,PAL1,1,R1001P
1399.191,0.002,706726,REC_END,n/a,n/a,3,-999,n/a,n/a,n/a,n/a,12,"[0, 0, 0]",-999,PAL1,1,R1001P
1399.193,0.007,706727,REC_EVENT,5.027,n/a,3,3,FENCE,<>,FENCE,STORE,12,"[0, 0, 0]",-999,PAL1,1,R1001P
1399.2,0.275,706731,TEST_ORIENT,n/a,n/a,4,4,WAVE,n/a,SUN,WAVE,12,"[0, 0, 0]",-999,PAL1,1,R1001P
1400.033,4.0,707147,TEST_PROBE,n/a,wordpools/wordpool_EN.txt,4,4,WAVE,n/a,SUN,WAVE,12,"[0, 0, 0]",-999,PAL1,1,R1001P
1400.034,5.008,707148,REC_START,n/a,n/a,4,-999,n/a,n/a,n/a,n/a,12,"[0, 0, 0]",-999,PAL1,1,R1001P
1405.042,0.001,709652,REC_END,n/a,n/a,4,-999,n/a,n/a,n/a,n/a,12,"[0, 0, 0]",-999,PAL1,1,R1001P
1405.043,0.008,709652,REC_EVENT,5.009,n/a,4,4,WAVE,<>,SUN,WAVE,12,"[0, 0, 0]",-999,PAL1,1,R1001P
1405.051,0.275,709656,TEST_ORIENT,n/a,n/a,1,5,MULE,n/a,MULE,STICK,12,"[0, 0, 0]",-999,PAL1,1,R1001P
1406.051,4.0,710156,TEST_PROBE,n/a,wordpools/wordpool_EN.txt,1,5,MULE,n/a,MULE,STICK,12,"[0, 0, 0]",-999,PAL1,1,R1001P
1406.052,5.003,710157,REC_START,n/a,n/a,1,-999,n/a,n/a,n/a,n/a,12,"[0, 0, 0]",-999,PAL1,1,R1001P
1411.055,0.005,712658,REC_EVENT,5.003,n/a,1,5,MULE,<>,MULE,STICK,12,"[0, 0, 0]",-999,PAL1,1,R1001P
1411.06,0.009,712661,REC_END,n/a,n/a,1,-999,n/a,n/a,n/a,n/a,12,"[0, 0, 0]",-999,PAL1,1,R1001P
1411.069,0.275,712665,TEST_ORIENT,n/a,n/a,6,6,DITCH,THREAD,DITCH,THREAD,12,"[0, 0, 0]",-999,PAL1,1,R1001P
1412.069,4.0,713165,TEST_PROBE,n/a,wordpools/wordpool_EN.txt,6,6,DITCH,THREAD,DITCH,THREAD,12,"[0, 0, 0]",-999,PAL1,1,R1001P
1412.07,1.922,713165,REC_START,n/a,n/a,6,-999,n/a,THREAD,n/a,n/a,12,"[0, 0, 0]",-999,PAL1,1,R1001P
1413.992,3.103,714126,REC_EVENT,1.922,n/a,6,6,DITCH,THREAD,DITCH,THREAD,12,"[0, 0, 0]",-999,PAL1,1,R1001P
1417.095,1.95,715678,REC_END,n/a,n/a,6,-999,n/a,n/a,n/a,n/a,12,"[0, 0, 0]",-999,PAL1,1,R1001P
1419.045,10.444,716653,ENCODING_START,n/a,n/a,0,-999,n/a,n/a,n/a,n/a,13,"[0, 0, 0]",-999,PAL1,1,R1001P
1429.489,0.275,721875,STUDY_ORIENT,n/a,n/a,1,1,AXE,n/a,BOMB,AXE,13,"[0, 0, 0]",-999,PAL1,1,R1001P
1430.406,4.0,722333,STUDY_PAIR,n/a,wordpools/wordpool_EN.txt,1,1,AXE,n/a,BOMB,AXE,13,"[0, 0, 0]",-999,PAL1,1,R1001P
1435.44,0.275,724850,STUDY_ORIENT,n/a,n/a,2,2,FOG,n/a,FOG,HORN,13,"[0, 0, 0]",-999,PAL1,1,R1001P
1436.274,4.0,725267,STUDY_PAIR,n/a,wordpools/wordpool_EN.txt,2,2,FOG,n/a,FOG,HORN,13,"[0, 0, 0]",-999,PAL1,1,R1001P
1441.308,0.275,727784,STUDY_ORIENT,n/a,n/a,3,5,PLANE,n/a,PLANE,BLUSH,13,"[0, 0, 0]",-999,PAL1,1,R1001P
1442.208,4.0,728234,STUDY_PAIR,n/a,wordpools/wordpool_EN.txt,3,5,PLANE,n/a,PLANE,BLUSH,13,"[0, 0, 0]",-999,PAL1,1,R1001P
1447.226,0.275,730743,STUDY_ORIENT,n/a,n/a,4,4,DESK,n/a,WHALE,DESK,13,"[0, 0, 0]",-999,PAL1,1,R1001P
1448.193,4.0,731226,STUDY_PAIR,n/a,wordpools/wordpool_EN.txt,4,4,DESK,n/a,WHALE,DESK,13,"[0, 0, 0]",-999,PAL1,1,R1001P
1453.227,0.275,733743,STUDY_ORIENT,n/a,n/a,5,3,TANK,n/a,TANK,HAT,13,"[0, 0, 0]",-999,PAL1,1,R1001P
1454.111,4.0,734185,STUDY_PAIR,n/a,wordpools/wordpool_EN.txt,5,3,TANK,n/a,TANK,HAT,13,"[0, 0, 0]",-999,PAL1,1,R1001P
1459.145,0.275,736702,STUDY_ORIENT,n/a,n/a,6,6,BATH,n/a,WHEEL,BATH,13,"[0, 0, 0]",-999,PAL1,1,R1001P
1460.112,4.0,737185,STUDY_PAIR,n/a,wordpools/wordpool_EN.txt,6,6,BATH,n/a,WHEEL,BATH,13,"[0, 0, 0]",-999,PAL1,1,R1001P
1464.13,0.999,739194,START,n/a,n/a,-999,-999,n/a,n/a,n/a,n/a,13,"[-999, -999, -999]",-999,PAL1,1,R1001P
1465.129,0.017,739694,MATH_START,n/a,n/a,-999,-999,n/a,n/a,n/a,n/a,13,"[0, 0, 0]",-999,PAL1,1,R1001P
1465.146,10.534,739702,PROB,10.514,n/a,-999,-999,n/a,n/a,n/a,n/a,13,"[3, 3, 1]",7,PAL1,1,R1001P
1475.68,3.552,744969,PROB,3.517,n/a,-999,-999,n/a,n/a,n/a,n/a,13,"[7, 2, 3]",12,PAL1,1,R1001P
1479.232,3.617,746745,PROB,3.589,n/a,-999,-999,n/a,n/a,n/a,n/a,13,"[1, 9, 6]",16,PAL1,1,R1001P
1482.849,7.835,748553,PROB,7.835,n/a,-999,-999,n/a,n/a,n/a,n/a,13,"[1, 8, 5]",14,PAL1,1,R1001P
1490.684,0.016,752470,STOP,n/a,n/a,-999,-999,n/a,n/a,n/a,n/a,13,"[-999, -999, -999]",-999,PAL1,1,R1001P
1490.7,0.0,752478,TEST_START,n/a,n/a,-999,-999,n/a,n/a,n/a,n/a,13,"[0, 0, 0]",-999,PAL1,1,R1001P
1490.7,0.018,752478,MATH_END,n/a,n/a,-999,-999,n/a,n/a,n/a,n/a,13,"[0, 0, 0]",-999,PAL1,1,R1001P
1490.718,0.275,752487,TEST_ORIENT,n/a,n/a,1,1,AXE,n/a,BOMB,AXE,13,"[0, 0, 0]",-999,PAL1,1,R1001P
1491.667,4.0,752962,TEST_PROBE,n/a,wordpools/wordpool_EN.txt,1,1,AXE,n/a,BOMB,AXE,13,"[0, 0, 0]",-999,PAL1,1,R1001P
1491.667,3.327,752962,REC_START,n/a,n/a,1,-999,n/a,n/a,n/a,n/a,13,"[0, 0, 0]",-999,PAL1,1,R1001P
1494.994,1.69,754625,REC_EVENT,3.327,n/a,1,1,AXE,<>,BOMB,AXE,13,"[0, 0, 0]",-999,PAL1,1,R1001P
1496.684,0.017,755470,REC_END,n/a,n/a,1,-999,n/a,n/a,n/a,n/a,13,"[0, 0, 0]",-999,PAL1,1,R1001P
1496.701,0.275,755479,TEST_ORIENT,n/a,n/a,2,2,FOG,n/a,FOG,HORN,13,"[0, 0, 0]",-999,PAL1,1,R1001P
1497.601,4.0,755929,TEST_PROBE,n/a,wordpools/wordpool_EN.txt,2,2,FOG,n/a,FOG,HORN,13,"[0, 0, 0]",-999,PAL1,1,R1001P
1497.602,5.009,755929,REC_START,n/a,n/a,2,-999,n/a,n/a,n/a,n/a,13,"[0, 0, 0]",-999,PAL1,1,R1001P
1502.611,0.0,758434,REC_EVENT,5.009,n/a,2,2,FOG,<>,FOG,HORN,13,"[0, 0, 0]",-999,PAL1,1,R1001P
1502.611,0.008,758434,REC_END,n/a,n/a,2,-999,n/a,n/a,n/a,n/a,13,"[0, 0, 0]",-999,PAL1,1,R1001P
1502.619,0.275,758438,TEST_ORIENT,n/a,n/a,5,3,TANK,n/a,TANK,HAT,13,"[0, 0, 0]",-999,PAL1,1,R1001P
1503.437,4.0,758847,TEST_PROBE,n/a,wordpools/wordpool_EN.txt,5,3,TANK,n/a,TANK,HAT,13,"[0, 0, 0]",-999,PAL1,1,R1001P
1503.437,5.015,758847,REC_START,n/a,n/a,5,-999,n/a,n/a,n/a,n/a,13,"[0, 0, 0]",-999,PAL1,1,R1001P
1508.452,0.002,761354,REC_EVENT,5.015,n/a,5,3,TANK,<>,TANK,HAT,13,"[0, 0, 0]",-999,PAL1,1,R1001P
1508.454,0.017,761355,REC_END,n/a,n/a,5,-999,n/a,n/a,n/a,n/a,13,"[0, 0, 0]",-999,PAL1,1,R1001P
1508.471,0.275,761363,TEST_ORIENT,n/a,n/a,4,4,DESK,n/a,WHALE,DESK,13,"[0, 0, 0]",-999,PAL1,1,R1001P
1509.321,4.0,761788,TEST_PROBE,n/a,wordpools/wordpool_EN.txt,4,4,DESK,n/a,WHALE,DESK,13,"[0, 0, 0]",-999,PAL1,1,R1001P
1509.322,5.009,761789,REC_START,n/a,n/a,4,-999,n/a,n/a,n/a,n/a,13,"[0, 0, 0]",-999,PAL1,1,R1001P
1514.331,0.0,764293,REC_EVENT,5.009,n/a,4,4,DESK,<>,WHALE,DESK,13,"[0, 0, 0]",-999,PAL1,1,R1001P
1514.331,0.008,764293,REC_END,n/a,n/a,4,-999,n/a,n/a,n/a,n/a,13,"[0, 0, 0]",-999,PAL1,1,R1001P
1514.339,0.275,764297,TEST_ORIENT,n/a,n/a,3,5,PLANE,n/a,PLANE,BLUSH,13,"[0, 0, 0]",-999,PAL1,1,R1001P
1515.256,4.0,764756,TEST_PROBE,n/a,wordpools/wordpool_EN.txt,3,5,PLANE,n/a,PLANE,BLUSH,13,"[0, 0, 0]",-999,PAL1,1,R1001P
1515.256,5.015,764756,REC_START,n/a,n/a,3,-999,n/a,n/a,n/a,n/a,13,"[0, 0, 0]",-999,PAL1,1,R1001P
1520.271,0.002,767263,REC_EVENT,5.015,n/a,3,5,PLANE,<>,PLANE,BLUSH,13,"[0, 0, 0]",-999,PAL1,1,R1001P
1520.273,0.017,767264,REC_END,n/a,n/a,3,-999,n/a,n/a,n/a,n/a,13,"[0, 0, 0]",-999,PAL1,1,R1001P
1520.29,0.275,767273,TEST_ORIENT,n/a,n/a,6,6,BATH,n/a,WHEEL,BATH,13,"[0, 0, 0]",-999,PAL1,1,R1001P
1521.14,4.0,767698,TEST_PROBE,n/a,wordpools/wordpool_EN.txt,6,6,BATH,n/a,WHEEL,BATH,13,"[0, 0, 0]",-999,PAL1,1,R1001P
1521.14,5.018,767698,REC_START,n/a,n/a,6,-999,n/a,n/a,n/a,n/a,13,"[0, 0, 0]",-999,PAL1,1,R1001P
1526.158,0.003,770206,REC_END,n/a,n/a,6,-999,n/a,n/a,n/a,n/a,13,"[0, 0, 0]",-999,PAL1,1,R1001P
1526.161,1.38,770208,REC_EVENT,5.021,n/a,6,6,BATH,<>,WHEEL,BATH,13,"[0, 0, 0]",-999,PAL1,1,R1001P
1527.541,10.452,770898,ENCODING_START,n/a,n/a,0,-999,n/a,n/a,n/a,n/a,14,"[0, 0, 0]",-999,PAL1,1,R1001P
1537.993,0.275,776124,STUDY_ORIENT,n/a,n/a,1,1,CART,n/a,SMILE,CART,14,"[0, 0, 0]",-999,PAL1,1,R1001P
1538.96,4.0,776607,STUDY_PAIR,n/a,wordpools/wordpool_EN.txt,1,1,CART,n/a,SMILE,CART,14,"[0, 0, 0]",-999,PAL1,1,R1001P
1543.978,0.275,779116,STUDY_ORIENT,n/a,n/a,2,6,APE,n/a,CHALK,APE,14,"[0, 0, 0]",-999,PAL1,1,R1001P
1544.928,4.0,779591,STUDY_PAIR,n/a,wordpools/wordpool_EN.txt,2,6,APE,n/a,CHALK,APE,14,"[0, 0, 0]",-999,PAL1,1,R1001P
1549.946,0.275,782100,STUDY_ORIENT,n/a,n/a,3,3,PIE,n/a,PIE,RUG,14,"[0, 0, 0]",-999,PAL1,1,R1001P
1550.912,4.0,782583,STUDY_PAIR,n/a,wordpools/wordpool_EN.txt,3,3,PIE,n/a,PIE,RUG,14,"[0, 0, 0]",-999,PAL1,1,R1001P
1555.93,0.275,785092,STUDY_ORIENT,n/a,n/a,4,4,CAPE,n/a,CAPE,CLOTH,14,"[0, 0, 0]",-999,PAL1,1,R1001P
1556.93,4.0,785592,STUDY_PAIR,n/a,wordpools/wordpool_EN.txt,4,4,CAPE,n/a,CAPE,CLOTH,14,"[0, 0, 0]",-999,PAL1,1,R1001P
1561.948,0.275,788100,STUDY_ORIENT,n/a,n/a,5,5,PIN,n/a,PIN,BARN,14,"[0, 0, 0]",-999,PAL1,1,R1001P
1562.848,4.0,788550,STUDY_PAIR,n/a,wordpools/wordpool_EN.txt,5,5,PIN,n/a,PIN,BARN,14,"[0, 0, 0]",-999,PAL1,1,R1001P
1567.866,0.275,791059,STUDY_ORIENT,n/a,n/a,6,2,BOARD,n/a,RICE,BOARD,14,"[0, 0, 0]",-999,PAL1,1,R1001P
1568.849,4.0,791551,STUDY_PAIR,n/a,wordpools/wordpool_EN.txt,6,2,BOARD,n/a,RICE,BOARD,14,"[0, 0, 0]",-999,PAL1,1,R1001P
1572.85,1.0,793551,START,n/a,n/a,-999,-999,n/a,n/a,n/a,n/a,14,"[-999, -999, -999]",-999,PAL1,1,R1001P
1573.85,0.017,794051,MATH_START,n/a,n/a,-999,-999,n/a,n/a,n/a,n/a,14,"[0, 0, 0]",-999,PAL1,1,R1001P
1573.867,10.085,794060,PROB,10.066,n/a,-999,-999,n/a,n/a,n/a,n/a,14,"[1, 7, 7]",15,PAL1,1,R1001P
1583.952,6.185,799102,PROB,6.165,n/a,-999,-999,n/a,n/a,n/a,n/a,14,"[8, 4, 1]",13,PAL1,1,R1001P
1590.137,8.908,802194,PROB,8.908,n/a,-999,-999,n/a,n/a,n/a,n/a,14,"[6, 4, 3]",13,PAL1,1,R1001P
1599.045,0.01,806648,STOP,n/a,n/a,-999,-999,n/a,n/a,n/a,n/a,14,"[-999, -999, -999]",-999,PAL1,1,R1001P
1599.055,0.0,806653,MATH_END,n/a,n/a,-999,-999,n/a,n/a,n/a,n/a,14,"[0, 0, 0]",-999,PAL1,1,R1001P
1599.055,0.017,806653,TEST_START,n/a,n/a,-999,-999,n/a,n/a,n/a,n/a,14,"[0, 0, 0]",-999,PAL1,1,R1001P
1599.072,0.275,806661,TEST_ORIENT,n/a,n/a,1,1,CART,n/a,SMILE,CART,14,"[0, 0, 0]",-999,PAL1,1,R1001P
1599.922,4.0,807086,TEST_PROBE,n/a,wordpools/wordpool_EN.txt,1,1,CART,n/a,SMILE,CART,14,"[0, 0, 0]",-999,PAL1,1,R1001P
1599.922,5.015,807086,REC_START,n/a,n/a,1,-999,n/a,n/a,n/a,n/a,14,"[0, 0, 0]",-999,PAL1,1,R1001P
1604.937,0.002,809594,REC_EVENT,5.015,n/a,1,1,CART,<>,SMILE,CART,14,"[0, 0, 0]",-999,PAL1,1,R1001P
1604.939,0.017,809595,REC_END,n/a,n/a,1,-999,n/a,n/a,n/a,n/a,14,"[0, 0, 0]",-999,PAL1,1,R1001P
1604.956,0.275,809603,TEST_ORIENT,n/a,n/a,6,2,BOARD,n/a,RICE,BOARD,14,"[0, 0, 0]",-999,PAL1,1,R1001P
1605.957,0.0,810104,REC_START,n/a,n/a,6,-999,n/a,n/a,n/a,n/a,14,"[0, 0, 0]",-999,PAL1,1,R1001P
1605.957,4.0,810104,TEST_PROBE,n/a,wordpools/wordpool_EN.txt,6,2,BOARD,n/a,RICE,BOARD,14,"[0, 0, 0]",-999,PAL1,1,R1001P
1610.974,0.004,812612,REC_END,n/a,n/a,6,-999,n/a,n/a,n/a,n/a,14,"[0, 0, 0]",-999,PAL1,1,R1001P
1610.978,0.013,812614,REC_EVENT,5.021,n/a,6,2,BOARD,<>,RICE,BOARD,14,"[0, 0, 0]",-999,PAL1,1,R1001P
1610.991,0.275,812621,TEST_ORIENT,n/a,n/a,3,3,PIE,n/a,PIE,RUG,14,"[0, 0, 0]",-999,PAL1,1,R1001P
1612.024,4.0,813137,TEST_PROBE,n/a,wordpools/wordpool_EN.txt,3,3,PIE,n/a,PIE,RUG,14,"[0, 0, 0]",-999,PAL1,1,R1001P
1612.025,5.009,813138,REC_START,n/a,n/a,3,-999,n/a,n/a,n/a,n/a,14,"[0, 0, 0]",-999,PAL1,1,R1001P
1617.034,0.001,815642,REC_EVENT,5.009,n/a,3,3,PIE,<>,PIE,RUG,14,"[0, 0, 0]",-999,PAL1,1,R1001P
1617.035,0.007,815642,REC_END,n/a,n/a,3,-999,n/a,n/a,n/a,n/a,14,"[0, 0, 0]",-999,PAL1,1,R1001P
1617.042,0.275,815646,TEST_ORIENT,n/a,n/a,4,4,CAPE,n/a,CAPE,CLOTH,14,"[0, 0, 0]",-999,PAL1,1,R1001P
1617.959,4.0,816104,TEST_PROBE,n/a,wordpools/wordpool_EN.txt,4,4,CAPE,n/a,CAPE,CLOTH,14,"[0, 0, 0]",-999,PAL1,1,R1001P
1617.959,5.015,816104,REC_START,n/a,n/a,4,-999,n/a,n/a,n/a,n/a,14,"[0, 0, 0]",-999,PAL1,1,R1001P
1622.974,0.002,818612,REC_EVENT,5.015,n/a,4,4,CAPE,<>,CAPE,CLOTH,14,"[0, 0, 0]",-999,PAL1,1,R1001P
1622.976,0.017,818613,REC_END,n/a,n/a,4,-999,n/a,n/a,n/a,n/a,14,"[0, 0, 0]",-999,PAL1,1,R1001P
1622.993,0.275,818621,TEST_ORIENT,n/a,n/a,5,5,PIN,n/a,PIN,BARN,14,"[0, 0, 0]",-999,PAL1,1,R1001P
1623.793,4.0,819021,TEST_PROBE,n/a,wordpools/wordpool_EN.txt,5,5,PIN,n/a,PIN,BARN,14,"[0, 0, 0]",-999,PAL1,1,R1001P
1623.794,5.009,819022,REC_START,n/a,n/a,5,-999,n/a,n/a,n/a,n/a,14,"[0, 0, 0]",-999,PAL1,1,R1001P
1628.803,0.0,821526,REC_END,n/a,n/a,5,-999,n/a,n/a,n/a,n/a,14,"[0, 0, 0]",-999,PAL1,1,R1001P
1628.803,0.008,821526,REC_EVENT,5.009,n/a,5,5,PIN,<>,PIN,BARN,14,"[0, 0, 0]",-999,PAL1,1,R1001P
1628.811,0.275,821530,TEST_ORIENT,n/a,n/a,2,6,APE,n/a,CHALK,APE,14,"[0, 0, 0]",-999,PAL1,1,R1001P
1629.677,4.0,821963,TEST_PROBE,n/a,wordpools/wordpool_EN.txt,2,6,APE,n/a,CHALK,APE,14,"[0, 0, 0]",-999,PAL1,1,R1001P
1629.677,5.015,821963,REC_START,n/a,n/a,2,-999,n/a,n/a,n/a,n/a,14,"[0, 0, 0]",-999,PAL1,1,R1001P
1634.692,0.002,824471,REC_EVENT,5.015,n/a,2,6,APE,<>,CHALK,APE,14,"[0, 0, 0]",-999,PAL1,1,R1001P
1634.694,1.375,824472,REC_END,n/a,n/a,2,-999,n/a,n/a,n/a,n/a,14,"[0, 0, 0]",-999,PAL1,1,R1001P
1636.069,10.445,825159,ENCODING_START,n/a,n/a,0,-999,n/a,n/a,n/a,n/a,15,"[0, 0, 0]",-999,PAL1,1,R1001P
1646.514,0.275,830381,STUDY_ORIENT,n/a,n/a,1,5,BOWL,n/a,BOWL,HOUSE,15,"[0, 0, 0]",-999,PAL1,1,R1001P
1647.381,4.0,830815,STUDY_PAIR,n/a,wordpools/wordpool_EN.txt,1,5,BOWL,n/a,BOWL,HOUSE,15,"[0, 0, 0]",-999,PAL1,1,R1001P
1652.399,0.275,833324,STUDY_ORIENT,n/a,n/a,2,4,DOG,n/a,DOG,SINK,15,"[0, 0, 0]",-999,PAL1,1,R1001P
1653.299,4.0,833774,STUDY_PAIR,n/a,wordpools/wordpool_EN.txt,2,4,DOG,n/a,DOG,SINK,15,"[0, 0, 0]",-999,PAL1,1,R1001P
1658.333,0.275,836290,STUDY_ORIENT,n/a,n/a,3,1,PHONE,n/a,PHONE,STRAW,15,"[0, 0, 0]",-999,PAL1,1,R1001P
1659.267,4.0,836757,STUDY_PAIR,n/a,wordpools/wordpool_EN.txt,3,1,PHONE,n/a,PHONE,STRAW,15,"[0, 0, 0]",-999,PAL1,1,R1001P
1664.301,0.275,839274,STUDY_ORIENT,n/a,n/a,4,6,TOY,n/a,MOUSE,TOY,15,"[0, 0, 0]",-999,PAL1,1,R1001P
1665.318,4.0,839783,STUDY_PAIR,n/a,wordpools/wordpool_EN.txt,4,6,TOY,n/a,MOUSE,TOY,15,"[0, 0, 0]",-999,PAL1,1,R1001P
1670.352,0.275,842300,STUDY_ORIENT,n/a,n/a,5,3,CUP,MOUSE,CUP,SEA,15,"[0, 0, 0]",-999,PAL1,1,R1001P
1671.352,4.0,842800,STUDY_PAIR,n/a,wordpools/wordpool_EN.txt,5,3,CUP,MOUSE,CUP,SEA,15,"[0, 0, 0]",-999,PAL1,1,R1001P
1676.37,0.275,845308,STUDY_ORIENT,n/a,n/a,6,2,LAMB,n/a,LAMB,PEA,15,"[0, 0, 0]",-999,PAL1,1,R1001P
1677.304,4.0,845775,STUDY_PAIR,n/a,wordpools/wordpool_EN.txt,6,2,LAMB,n/a,LAMB,PEA,15,"[0, 0, 0]",-999,PAL1,1,R1001P
1681.322,0.999,847784,START,n/a,n/a,-999,-999,n/a,n/a,n/a,n/a,15,"[-999, -999, -999]",-999,PAL1,1,R1001P
1682.321,0.017,848284,MATH_START,n/a,n/a,-999,-999,n/a,n/a,n/a,n/a,15,"[0, 0, 0]",-999,PAL1,1,R1001P
1682.338,9.235,848292,PROB,9.203,n/a,-999,-999,n/a,n/a,n/a,n/a,15,"[1, 4, 1]",6,PAL1,1,R1001P
1691.573,23.528,852909,PROB,23.528,n/a,-999,-999,n/a,n/a,n/a,n/a,15,"[6, 5, 2]",13,PAL1,1,R1001P
1715.101,0.01,864673,STOP,n/a,n/a,-999,-999,n/a,n/a,n/a,n/a,15,"[-999, -999, -999]",-999,PAL1,1,R1001P
1715.111,0.0,864678,MATH_END,n/a,n/a,-999,-999,n/a,n/a,n/a,n/a,15,"[0, 0, 0]",-999,PAL1,1,R1001P
1715.111,0.017,864678,TEST_START,n/a,n/a,-999,-999,n/a,n/a,n/a,n/a,15,"[0, 0, 0]",-999,PAL1,1,R1001P
1715.128,0.275,864686,TEST_ORIENT,n/a,n/a,3,1,PHONE,n/a,PHONE,STRAW,15,"[0, 0, 0]",-999,PAL1,1,R1001P
1716.044,4.0,865144,TEST_PROBE,n/a,wordpools/wordpool_EN.txt,3,1,PHONE,n/a,PHONE,STRAW,15,"[0, 0, 0]",-999,PAL1,1,R1001P
1716.045,5.008,865145,REC_START,n/a,n/a,3,-999,n/a,n/a,n/a,n/a,15,"[0, 0, 0]",-999,PAL1,1,R1001P
1721.053,0.001,867649,REC_END,n/a,n/a,3,-999,n/a,n/a,n/a,n/a,15,"[0, 0, 0]",-999,PAL1,1,R1001P
1721.054,0.008,867649,REC_EVENT,5.009,n/a,3,1,PHONE,<>,PHONE,STRAW,15,"[0, 0, 0]",-999,PAL1,1,R1001P
1721.062,0.275,867653,TEST_ORIENT,n/a,n/a,6,2,LAMB,n/a,LAMB,PEA,15,"[0, 0, 0]",-999,PAL1,1,R1001P
1722.096,4.0,868170,TEST_PROBE,n/a,wordpools/wordpool_EN.txt,6,2,LAMB,n/a,LAMB,PEA,15,"[0, 0, 0]",-999,PAL1,1,R1001P
1722.096,5.025,868170,REC_START,n/a,n/a,6,-999,n/a,n/a,n/a,n/a,15,"[0, 0, 0]",-999,PAL1,1,R1001P
1727.121,0.002,870683,REC_END,n/a,n/a,6,-999,n/a,n/a,n/a,n/a,15,"[0, 0, 0]",-999,PAL1,1,R1001P
1727.123,0.007,870684,REC_EVENT,5.027,n/a,6,2,LAMB,<>,LAMB,PEA,15,"[0, 0, 0]",-999,PAL1,1,R1001P
1727.13,0.275,870687,TEST_ORIENT,n/a,n/a,5,3,CUP,MOUSE,CUP,SEA,15,"[0, 0, 0]",-999,PAL1,1,R1001P
1728.03,4.0,871137,TEST_PROBE,n/a,wordpools/wordpool_EN.txt,5,3,CUP,MOUSE,CUP,SEA,15,"[0, 0, 0]",-999,PAL1,1,R1001P
1728.03,1.961,871137,REC_START,n/a,n/a,5,-999,n/a,MOUSE,n/a,n/a,15,"[0, 0, 0]",-999,PAL1,1,R1001P
1729.991,0.293,872117,REC_EVENT,1.961,n/a,5,3,CUP,<>,CUP,SEA,15,"[0, 0, 0]",-999,PAL1,1,R1001P
1730.284,2.763,872264,REC_EVENT,2.254,n/a,5,3,CUP,MOUSE,CUP,SEA,15,"[0, 0, 0]",-999,PAL1,1,R1001P
1733.047,0.017,873645,REC_END,n/a,n/a,5,-999,n/a,n/a,n/a,n/a,15,"[0, 0, 0]",-999,PAL1,1,R1001P
1733.064,0.275,873654,TEST_ORIENT,n/a,n/a,2,4,DOG,n/a,DOG,SINK,15,"[0, 0, 0]",-999,PAL1,1,R1001P
1734.015,4.0,874129,TEST_PROBE,n/a,wordpools/wordpool_EN.txt,2,4,DOG,n/a,DOG,SINK,15,"[0, 0, 0]",-999,PAL1,1,R1001P
1734.015,5.017,874129,REC_START,n/a,n/a,2,-999,n/a,n/a,n/a,n/a,15,"[0, 0, 0]",-999,PAL1,1,R1001P
1739.032,0.004,876638,REC_END,n/a,n/a,2,-999,n/a,n/a,n/a,n/a,15,"[0, 0, 0]",-999,PAL1,1,R1001P
1739.036,0.013,876640,REC_EVENT,5.021,n/a,2,4,DOG,<>,DOG,SINK,15,"[0, 0, 0]",-999,PAL1,1,R1001P
1739.049,0.275,876646,TEST_ORIENT,n/a,n/a,1,5,BOWL,n/a,BOWL,HOUSE,15,"[0, 0, 0]",-999,PAL1,1,R1001P
1739.932,4.0,877088,TEST_PROBE,n/a,wordpools/wordpool_EN.txt,1,5,BOWL,n/a,BOWL,HOUSE,15,"[0, 0, 0]",-999,PAL1,1,R1001P
1739.933,4.998,877088,REC_START,n/a,n/a,1,-999,n/a,n/a,n/a,n/a,15,"[0, 0, 0]",-999,PAL1,1,R1001P
1744.931,0.002,879587,REC_EVENT,4.998,n/a,1,5,BOWL,<>,BOWL,HOUSE,15,"[0, 0, 0]",-999,PAL1,1,R1001P
1744.933,0.017,879588,REC_END,n/a,n/a,1,-999,n/a,n/a,n/a,n/a,15,"[0, 0, 0]",-999,PAL1,1,R1001P
1744.95,0.275,879597,TEST_ORIENT,n/a,n/a,4,6,TOY,n/a,MOUSE,TOY,15,"[0, 0, 0]",-999,PAL1,1,R1001P
1745.95,4.0,880097,TEST_PROBE,n/a,wordpools/wordpool_EN.txt,4,6,TOY,n/a,MOUSE,TOY,15,"[0, 0, 0]",-999,PAL1,1,R1001P
1745.951,5.008,880097,REC_START,n/a,n/a,4,-999,n/a,n/a,n/a,n/a,15,"[0, 0, 0]",-999,PAL1,1,R1001P
1750.959,0.001,882601,REC_END,n/a,n/a,4,-999,n/a,n/a,n/a,n/a,15,"[0, 0, 0]",-999,PAL1,1,R1001P
1750.96,1.62,882601,REC_EVENT,5.009,n/a,4,6,TOY,<>,MOUSE,TOY,15,"[0, 0, 0]",-999,PAL1,1,R1001P
1752.58,10.44,883411,ENCODING_START,n/a,n/a,0,-999,n/a,n/a,n/a,n/a,16,"[0, 0, 0]",-999,PAL1,1,R1001P
1763.02,0.275,888631,STUDY_ORIENT,n/a,n/a,1,3,CHAIR,n/a,CHAIR,ARM,16,"[0, 0, 0]",-999,PAL1,1,R1001P
1764.004,4.0,889123,STUDY_PAIR,n/a,wordpools/wordpool_EN.txt,1,3,CHAIR,n/a,CHAIR,ARM,16,"[0, 0, 0]",-999,PAL1,1,R1001P
1769.038,0.275,891640,STUDY_ORIENT,n/a,n/a,2,2,SMOKE,n/a,SALT,SMOKE,16,"[0, 0, 0]",-999,PAL1,1,R1001P
1769.871,4.0,892056,STUDY_PAIR,n/a,wordpools/wordpool_EN.txt,2,2,SMOKE,n/a,SALT,SMOKE,16,"[0, 0, 0]",-999,PAL1,1,R1001P
1774.889,0.275,894565,STUDY_ORIENT,n/a,n/a,3,1,PEN,n/a,MOLE,PEN,16,"[0, 0, 0]",-999,PAL1,1,R1001P
1775.856,4.0,895049,STUDY_PAIR,n/a,wordpools/wordpool_EN.txt,3,1,PEN,n/a,MOLE,PEN,16,"[0, 0, 0]",-999,PAL1,1,R1001P
1780.89,0.275,897566,STUDY_ORIENT,n/a,n/a,4,4,BED,MOUSE,BED,PEACH,16,"[0, 0, 0]",-999,PAL1,1,R1001P
1781.689,4.0,897965,STUDY_PAIR,n/a,wordpools/wordpool_EN.txt,4,4,BED,MOUSE,BED,PEACH,16,"[0, 0, 0]",-999,PAL1,1,R1001P
1786.707,0.275,900474,STUDY_ORIENT,n/a,n/a,5,5,CUBE,n/a,MOON,CUBE,16,"[0, 0, 0]",-999,PAL1,1,R1001P
1787.657,4.0,900949,STUDY_PAIR,n/a,wordpools/wordpool_EN.txt,5,5,CUBE,n/a,MOON,CUBE,16,"[0, 0, 0]",-999,PAL1,1,R1001P
1792.675,0.275,903458,STUDY_ORIENT,n/a,n/a,6,6,SKUNK,n/a,SWAMP,SKUNK,16,"[0, 0, 0]",-999,PAL1,1,R1001P
1793.442,4.0,903841,STUDY_PAIR,n/a,wordpools/wordpool_EN.txt,6,6,SKUNK,n/a,SWAMP,SKUNK,16,"[0, 0, 0]",-999,PAL1,1,R1001P
1797.444,0.999,905842,START,n/a,n/a,-999,-999,n/a,n/a,n/a,n/a,16,"[-999, -999, -999]",-999,PAL1,1,R1001P
1798.443,0.017,906342,MATH_START,n/a,n/a,-999,-999,n/a,n/a,n/a,n/a,16,"[0, 0, 0]",-999,PAL1,1,R1001P
1798.46,40.273,906350,PROB,40.273,n/a,-999,-999,n/a,n/a,n/a,n/a,16,"[9, 6, 3]",18,PAL1,1,R1001P
1838.733,0.002,926486,STOP,n/a,n/a,-999,-999,n/a,n/a,n/a,n/a,16,"[-999, -999, -999]",-999,PAL1,1,R1001P
1838.735,0.0,926487,MATH_END,n/a,n/a,-999,-999,n/a,n/a,n/a,n/a,16,"[0, 0, 0]",-999,PAL1,1,R1001P
1838.735,0.017,926487,TEST_START,n/a,n/a,-999,-999,n/a,n/a,n/a,n/a,16,"[0, 0, 0]",-999,PAL1,1,R1001P
1838.752,0.275,926495,TEST_ORIENT,n/a,n/a,3,1,PEN,n/a,MOLE,PEN,16,"[0, 0, 0]",-999,PAL1,1,R1001P
1839.684,4.0,926961,TEST_PROBE,n/a,wordpools/wordpool_EN.txt,3,1,PEN,n/a,MOLE,PEN,16,"[0, 0, 0]",-999,PAL1,1,R1001P
1839.685,5.015,926962,REC_START,n/a,n/a,3,-999,n/a,n/a,n/a,n/a,16,"[0, 0, 0]",-999,PAL1,1,R1001P
1844.7,0.001,929469,REC_EVENT,5.015,n/a,3,1,PEN,<>,MOLE,PEN,16,"[0, 0, 0]",-999,PAL1,1,R1001P
1844.701,0.018,929469,REC_END,n/a,n/a,3,-999,n/a,n/a,n/a,n/a,16,"[0, 0, 0]",-999,PAL1,1,R1001P
1844.719,0.275,929478,TEST_ORIENT,n/a,n/a,2,2,SMOKE,n/a,SALT,SMOKE,16,"[0, 0, 0]",-999,PAL1,1,R1001P
1845.57,4.0,929904,TEST_PROBE,n/a,wordpools/wordpool_EN.txt,2,2,SMOKE,n/a,SALT,SMOKE,16,"[0, 0, 0]",-999,PAL1,1,R1001P
1845.57,5.016,929904,REC_START,n/a,n/a,2,-999,n/a,n/a,n/a,n/a,16,"[0, 0, 0]",-999,PAL1,1,R1001P
1850.586,0.005,932412,REC_END,n/a,n/a,2,-999,n/a,n/a,n/a,n/a,16,"[0, 0, 0]",-999,PAL1,1,R1001P
1850.591,0.012,932414,REC_EVENT,5.021,n/a,2,2,SMOKE,<>,SALT,SMOKE,16,"[0, 0, 0]",-999,PAL1,1,R1001P
1850.603,0.275,932420,TEST_ORIENT,n/a,n/a,1,3,CHAIR,n/a,CHAIR,ARM,16,"[0, 0, 0]",-999,PAL1,1,R1001P
1851.437,4.0,932837,TEST_PROBE,n/a,wordpools/wordpool_EN.txt,1,3,CHAIR,n/a,CHAIR,ARM,16,"[0, 0, 0]",-999,PAL1,1,R1001P
1851.438,5.009,932838,REC_START,n/a,n/a,1,-999,n/a,n/a,n/a,n/a,16,"[0, 0, 0]",-999,PAL1,1,R1001P
1856.447,0.0,935342,REC_EVENT,5.009,n/a,1,3,CHAIR,<>,CHAIR,ARM,16,"[0, 0, 0]",-999,PAL1,1,R1001P
1856.447,0.008,935342,REC_END,n/a,n/a,1,-999,n/a,n/a,n/a,n/a,16,"[0, 0, 0]",-999,PAL1,1,R1001P
1856.455,0.275,935346,TEST_ORIENT,n/a,n/a,4,4,BED,MOUSE,BED,PEACH,16,"[0, 0, 0]",-999,PAL1,1,R1001P
1857.372,4.0,935805,TEST_PROBE,n/a,wordpools/wordpool_EN.txt,4,4,BED,MOUSE,BED,PEACH,16,"[0, 0, 0]",-999,PAL1,1,R1001P
1857.373,3.836,935805,REC_START,n/a,n/a,4,-999,n/a,MOUSE,n/a,n/a,16,"[0, 0, 0]",-999,PAL1,1,R1001P
1861.209,1.189,937723,REC_EVENT,3.836,n/a,4,4,BED,MOUSE,BED,PEACH,16,"[0, 0, 0]",-999,PAL1,1,R1001P
1862.398,0.008,938317,REC_END,n/a,n/a,4,-999,n/a,n/a,n/a,n/a,16,"[0, 0, 0]",-999,PAL1,1,R1001P
1862.406,0.275,938321,TEST_ORIENT,n/a,n/a,5,5,CUBE,n/a,MOON,CUBE,16,"[0, 0, 0]",-999,PAL1,1,R1001P
1863.24,0.0,938738,REC_START,n/a,n/a,5,-999,n/a,n/a,n/a,n/a,16,"[0, 0, 0]",-999,PAL1,1,R1001P
1863.24,4.0,938738,TEST_PROBE,n/a,wordpools/wordpool_EN.txt,5,5,CUBE,n/a,MOON,CUBE,16,"[0, 0, 0]",-999,PAL1,1,R1001P
1868.257,0.004,941247,REC_END,n/a,n/a,5,-999,n/a,n/a,n/a,n/a,16,"[0, 0, 0]",-999,PAL1,1,R1001P
1868.261,0.013,941249,REC_EVENT,5.021,n/a,5,5,CUBE,<>,MOON,CUBE,16,"[0, 0, 0]",-999,PAL1,1,R1001P
1868.274,0.275,941255,TEST_ORIENT,n/a,n/a,6,6,SKUNK,n/a,SWAMP,SKUNK,16,"[0, 0, 0]",-999,PAL1,1,R1001P
1869.124,4.0,941680,TEST_PROBE,n/a,wordpools/wordpool_EN.txt,6,6,SKUNK,n/a,SWAMP,SKUNK,16,"[0, 0, 0]",-999,PAL1,1,R1001P
1869.124,5.015,941680,REC_START,n/a,n/a,6,-999,n/a,n/a,n/a,n/a,16,"[0, 0, 0]",-999,PAL1,1,R1001P
1874.139,0.002,944188,REC_EVENT,5.015,n/a,6,6,SKUNK,<>,SWAMP,SKUNK,16,"[0, 0, 0]",-999,PAL1,1,R1001P
1874.141,1.6,944189,REC_END,n/a,n/a,6,-999,n/a,n/a,n/a,n/a,16,"[0, 0, 0]",-999,PAL1,1,R1001P
1875.741,10.453,944989,ENCODING_START,n/a,n/a,0,-999,n/a,n/a,n/a,n/a,17,"[0, 0, 0]",-999,PAL1,1,R1001P
1886.194,0.275,950215,STUDY_ORIENT,n/a,n/a,1,1,CHIEF,n/a,CHIEF,DEER,17,"[0, 0, 0]",-999,PAL1,1,R1001P
1887.111,4.0,950673,STUDY_PAIR,n/a,wordpools/wordpool_EN.txt,1,1,CHIEF,n/a,CHIEF,DEER,17,"[0, 0, 0]",-999,PAL1,1,R1001P
1892.145,0.275,953190,STUDY_ORIENT,n/a,n/a,2,4,MOUTH,CAKE,BOOK,MOUTH,17,"[0, 0, 0]",-999,PAL1,1,R1001P
1893.145,4.0,953690,STUDY_PAIR,n/a,wordpools/wordpool_EN.txt,2,4,MOUTH,CAKE,BOOK,MOUTH,17,"[0, 0, 0]",-999,PAL1,1,R1001P
1898.163,0.275,956199,STUDY_ORIENT,n/a,n/a,3,3,CROWN,n/a,THUMB,CROWN,17,"[0, 0, 0]",-999,PAL1,1,R1001P
1899.146,4.0,956690,STUDY_PAIR,n/a,wordpools/wordpool_EN.txt,3,3,CROWN,n/a,THUMB,CROWN,17,"[0, 0, 0]",-999,PAL1,1,R1001P
1904.164,0.275,959199,STUDY_ORIENT,n/a,n/a,4,2,SOUP,n/a,SOUP,DOLL,17,"[0, 0, 0]",-999,PAL1,1,R1001P
1905.114,4.0,959674,STUDY_PAIR,n/a,wordpools/wordpool_EN.txt,4,2,SOUP,n/a,SOUP,DOLL,17,"[0, 0, 0]",-999,PAL1,1,R1001P
1910.132,0.275,962183,STUDY_ORIENT,n/a,n/a,5,5,VEST,n/a,VEST,SLUSH,17,"[0, 0, 0]",-999,PAL1,1,R1001P
1910.915,4.0,962575,STUDY_PAIR,n/a,wordpools/wordpool_EN.txt,5,5,VEST,n/a,VEST,SLUSH,17,"[0, 0, 0]",-999,PAL1,1,R1001P
1915.933,0.275,965083,STUDY_ORIENT,n/a,n/a,6,6,DRESS,FUR,FUR,DRESS,17,"[0, 0, 0]",-999,PAL1,1,R1001P
1916.917,4.0,965575,STUDY_PAIR,n/a,wordpools/wordpool_EN.txt,6,6,DRESS,FUR,FUR,DRESS,17,"[0, 0, 0]",-999,PAL1,1,R1001P
1920.935,0.999,967584,START,n/a,n/a,-999,-999,n/a,n/a,n/a,n/a,17,"[-999, -999, -999]",-999,PAL1,1,R1001P
1921.934,0.017,968084,MATH_START,n/a,n/a,-999,-999,n/a,n/a,n/a,n/a,17,"[0, 0, 0]",-999,PAL1,1,R1001P
1921.951,7.801,968092,PROB,7.774,n/a,-999,-999,n/a,n/a,n/a,n/a,17,"[5, 9, 1]",15,PAL1,1,R1001P
1929.752,4.384,971993,PROB,4.365,n/a,-999,-999,n/a,n/a,n/a,n/a,17,"[3, 4, 7]",14,PAL1,1,R1001P
1934.136,6.735,974184,PROB,6.701,n/a,-999,-999,n/a,n/a,n/a,n/a,17,"[6, 6, 4]",16,PAL1,1,R1001P
1940.871,6.35,977552,PROB,6.35,n/a,-999,-999,n/a,n/a,n/a,n/a,17,"[3, 8, 8]",19,PAL1,1,R1001P
1947.221,0.018,980727,STOP,n/a,n/a,-999,-999,n/a,n/a,n/a,n/a,17,"[-999, -999, -999]",-999,PAL1,1,R1001P
1947.239,0.0,980736,MATH_END,n/a,n/a,-999,-999,n/a,n/a,n/a,n/a,17,"[0, 0, 0]",-999,PAL1,1,R1001P
1947.239,0.017,980736,TEST_START,n/a,n/a,-999,-999,n/a,n/a,n/a,n/a,17,"[0, 0, 0]",-999,PAL1,1,R1001P
1947.256,0.275,980744,TEST_ORIENT,n/a,n/a,1,1,CHIEF,n/a,CHIEF,DEER,17,"[0, 0, 0]",-999,PAL1,1,R1001P
1948.289,4.0,981261,TEST_PROBE,n/a,wordpools/wordpool_EN.txt,1,1,CHIEF,n/a,CHIEF,DEER,17,"[0, 0, 0]",-999,PAL1,1,R1001P
1948.29,5.003,981261,REC_START,n/a,n/a,1,-999,n/a,n/a,n/a,n/a,17,"[0, 0, 0]",-999,PAL1,1,R1001P
1953.293,0.006,983762,REC_EVENT,5.003,n/a,1,1,CHIEF,<>,CHIEF,DEER,17,"[0, 0, 0]",-999,PAL1,1,R1001P
1953.299,0.008,983765,REC_END,n/a,n/a,1,-999,n/a,n/a,n/a,n/a,17,"[0, 0, 0]",-999,PAL1,1,R1001P
1953.307,0.275,983769,TEST_ORIENT,n/a,n/a,4,2,SOUP,n/a,SOUP,DOLL,17,"[0, 0, 0]",-999,PAL1,1,R1001P
1954.29,4.0,984261,TEST_PROBE,n/a,wordpools/wordpool_EN.txt,4,2,SOUP,n/a,SOUP,DOLL,17,"[0, 0, 0]",-999,PAL1,1,R1001P
1954.291,5.009,984261,REC_START,n/a,n/a,4,-999,n/a,n/a,n/a,n/a,17,"[0, 0, 0]",-999,PAL1,1,R1001P
1959.3,0.0,986766,REC_EVENT,5.009,n/a,4,2,SOUP,<>,SOUP,DOLL,17,"[0, 0, 0]",-999,PAL1,1,R1001P
1959.3,0.008,986766,REC_END,n/a,n/a,4,-999,n/a,n/a,n/a,n/a,17,"[0, 0, 0]",-999,PAL1,1,R1001P
1959.308,0.275,986770,TEST_ORIENT,n/a,n/a,3,3,CROWN,n/a,THUMB,CROWN,17,"[0, 0, 0]",-999,PAL1,1,R1001P
1960.241,4.0,987236,TEST_PROBE,n/a,wordpools/wordpool_EN.txt,3,3,CROWN,n/a,THUMB,CROWN,17,"[0, 0, 0]",-999,PAL1,1,R1001P
1960.242,5.009,987237,REC_START,n/a,n/a,3,-999,n/a,n/a,n/a,n/a,17,"[0, 0, 0]",-999,PAL1,1,R1001P
1965.251,0.0,989741,REC_EVENT,5.009,n/a,3,3,CROWN,<>,THUMB,CROWN,17,"[0, 0, 0]",-999,PAL1,1,R1001P
1965.251,0.008,989741,REC_END,n/a,n/a,3,-999,n/a,n/a,n/a,n/a,17,"[0, 0, 0]",-999,PAL1,1,R1001P
1965.259,0.275,989745,TEST_ORIENT,n/a,n/a,2,4,MOUTH,CAKE,BOOK,MOUTH,17,"[0, 0, 0]",-999,PAL1,1,R1001P
1966.093,4.0,990162,TEST_PROBE,n/a,wordpools/wordpool_EN.txt,2,4,MOUTH,CAKE,BOOK,MOUTH,17,"[0, 0, 0]",-999,PAL1,1,R1001P
1966.093,3.205,990162,REC_START,n/a,n/a,2,-999,n/a,CAKE,n/a,n/a,17,"[0, 0, 0]",-999,PAL1,1,R1001P
1969.298,1.812,991765,REC_EVENT,3.205,n/a,2,4,MOUTH,CAKE,BOOK,MOUTH,17,"[0, 0, 0]",-999,PAL1,1,R1001P
1971.11,0.017,992670,REC_END,n/a,n/a,2,-999,n/a,n/a,n/a,n/a,17,"[0, 0, 0]",-999,PAL1,1,R1001P
1971.127,0.275,992679,TEST_ORIENT,n/a,n/a,5,5,VEST,n/a,VEST,SLUSH,17,"[0, 0, 0]",-999,PAL1,1,R1001P
1971.944,4.0,993087,TEST_PROBE,n/a,wordpools/wordpool_EN.txt,5,5,VEST,n/a,VEST,SLUSH,17,"[0, 0, 0]",-999,PAL1,1,R1001P
1971.944,5.017,993087,REC_START,n/a,n/a,5,-999,n/a,n/a,n/a,n/a,17,"[0, 0, 0]",-999,PAL1,1,R1001P
1976.961,0.004,995596,REC_END,n/a,n/a,5,-999,n/a,n/a,n/a,n/a,17,"[0, 0, 0]",-999,PAL1,1,R1001P
1976.965,0.013,995598,REC_EVENT,5.021,n/a,5,5,VEST,<>,VEST,SLUSH,17,"[0, 0, 0]",-999,PAL1,1,R1001P
1976.978,0.275,995604,TEST_ORIENT,n/a,n/a,6,6,DRESS,FUR,FUR,DRESS,17,"[0, 0, 0]",-999,PAL1,1,R1001P
1977.845,4.0,996038,TEST_PROBE,n/a,wordpools/wordpool_EN.txt,6,6,DRESS,FUR,FUR,DRESS,17,"[0, 0, 0]",-999,PAL1,1,R1001P
1977.845,1.485,996038,REC_START,n/a,n/a,6,-999,n/a,FUR,n/a,n/a,17,"[0, 0, 0]",-999,PAL1,1,R1001P
1979.33,3.532,996780,REC_EVENT,1.485,n/a,6,6,DRESS,FUR,FUR,DRESS,17,"[0, 0, 0]",-999,PAL1,1,R1001P
1982.862,1.687,998546,REC_END,n/a,n/a,6,-999,n/a,n/a,n/a,n/a,17,"[0, 0, 0]",-999,PAL1,1,R1001P
1984.549,10.449,999390,ENCODING_START,n/a,n/a,0,-999,n/a,n/a,n/a,n/a,18,"[0, 0, 0]",-999,PAL1,1,R1001P
1994.998,0.275,1004614,STUDY_ORIENT,n/a,n/a,1,3,SHEET,BLANKET,FLAG,SHEET,18,"[0, 0, 0]",-999,PAL1,1,R1001P
1995.882,4.0,1005056,STUDY_PAIR,n/a,wordpools/wordpool_EN.txt,1,3,SHEET,BLANKET,FLAG,SHEET,18,"[0, 0, 0]",-999,PAL1,1,R1001P
2000.916,0.275,1007573,STUDY_ORIENT,n/a,n/a,2,2,FORT,n/a,FORT,BEE,18,"[0, 0, 0]",-999,PAL1,1,R1001P
2001.866,4.0,1008048,STUDY_PAIR,n/a,wordpools/wordpool_EN.txt,2,2,FORT,n/a,FORT,BEE,18,"[0, 0, 0]",-999,PAL1,1,R1001P
2006.884,0.275,1010557,STUDY_ORIENT,n/a,n/a,3,5,RAT,MOUSE,SPOON,RAT,18,"[0, 0, 0]",-999,PAL1,1,R1001P
2007.7,4.0,1010964,STUDY_PAIR,n/a,wordpools/wordpool_EN.txt,3,5,RAT,MOUSE,SPOON,RAT,18,"[0, 0, 0]",-999,PAL1,1,R1001P
2012.735,0.275,1013482,STUDY_ORIENT,n/a,n/a,4,6,ANT,n/a,RAIN,ANT,18,"[0, 0, 0]",-999,PAL1,1,R1001P
2013.719,4.0,1013974,STUDY_PAIR,n/a,wordpools/wordpool_EN.txt,4,6,ANT,n/a,RAIN,ANT,18,"[0, 0, 0]",-999,PAL1,1,R1001P
2018.753,0.275,1016491,STUDY_ORIENT,n/a,n/a,5,1,CLOCK,n/a,BOX,CLOCK,18,"[0, 0, 0]",-999,PAL1,1,R1001P
2019.602,4.0,1016915,STUDY_PAIR,n/a,wordpools/wordpool_EN.txt,5,1,CLOCK,n/a,BOX,CLOCK,18,"[0, 0, 0]",-999,PAL1,1,R1001P
2024.636,0.275,1019432,STUDY_ORIENT,n/a,n/a,6,4,SKY,JUICE,SKY,JUICE,18,"[0, 0, 0]",-999,PAL1,1,R1001P
2025.521,4.0,1019875,STUDY_PAIR,n/a,wordpools/wordpool_EN.txt,6,4,SKY,JUICE,SKY,JUICE,18,"[0, 0, 0]",-999,PAL1,1,R1001P
2029.539,0.999,1021883,START,n/a,n/a,-999,-999,n/a,n/a,n/a,n/a,18,"[-999, -999, -999]",-999,PAL1,1,R1001P
2030.538,0.017,1022383,MATH_START,n/a,n/a,-999,-999,n/a,n/a,n/a,n/a,18,"[0, 0, 0]",-999,PAL1,1,R1001P
2030.555,8.385,1022391,PROB,8.362,n/a,-999,-999,n/a,n/a,n/a,n/a,18,"[6, 3, 9]",18,PAL1,1,R1001P
2038.94,9.802,1026584,PROB,9.768,n/a,-999,-999,n/a,n/a,n/a,n/a,18,"[2, 2, 7]",12,PAL1,1,R1001P
2048.742,11.862,1031484,PROB,11.862,n/a,-999,-999,n/a,n/a,n/a,n/a,18,"[5, 2, 6]",13,PAL1,1,R1001P
2060.604,0.006,1037415,STOP,n/a,n/a,-999,-999,n/a,n/a,n/a,n/a,18,"[-999, -999, -999]",-999,PAL1,1,R1001P
2060.61,0.0,1037418,MATH_END,n/a,n/a,-999,-999,n/a,n/a,n/a,n/a,18,"[0, 0, 0]",-999,PAL1,1,R1001P
2060.61,0.017,1037418,TEST_START,n/a,n/a,-999,-999,n/a,n/a,n/a,n/a,18,"[0, 0, 0]",-999,PAL1,1,R1001P
2060.627,0.275,1037427,TEST_ORIENT,n/a,n/a,5,1,CLOCK,n/a,BOX,CLOCK,18,"[0, 0, 0]",-999,PAL1,1,R1001P
2061.511,0.0,1037869,REC_START,n/a,n/a,5,-999,n/a,n/a,n/a,n/a,18,"[0, 0, 0]",-999,PAL1,1,R1001P
2061.511,4.0,1037869,TEST_PROBE,n/a,wordpools/wordpool_EN.txt,5,1,CLOCK,n/a,BOX,CLOCK,18,"[0, 0, 0]",-999,PAL1,1,R1001P
2066.526,0.003,1040376,REC_EVENT,5.015,n/a,5,1,CLOCK,<>,BOX,CLOCK,18,"[0, 0, 0]",-999,PAL1,1,R1001P
2066.529,0.016,1040377,REC_END,n/a,n/a,5,-999,n/a,n/a,n/a,n/a,18,"[0, 0, 0]",-999,PAL1,1,R1001P
2066.545,0.275,1040385,TEST_ORIENT,n/a,n/a,2,2,FORT,n/a,FORT,BEE,18,"[0, 0, 0]",-999,PAL1,1,R1001P
2067.529,4.0,1040877,TEST_PROBE,n/a,wordpools/wordpool_EN.txt,2,2,FORT,n/a,FORT,BEE,18,"[0, 0, 0]",-999,PAL1,1,R1001P
2067.53,5.016,1040878,REC_START,n/a,n/a,2,-999,n/a,n/a,n/a,n/a,18,"[0, 0, 0]",-999,PAL1,1,R1001P
2072.546,0.005,1043386,REC_END,n/a,n/a,2,-999,n/a,n/a,n/a,n/a,18,"[0, 0, 0]",-999,PAL1,1,R1001P
2072.551,0.012,1043388,REC_EVENT,5.021,n/a,2,2,FORT,<>,FORT,BEE,18,"[0, 0, 0]",-999,PAL1,1,R1001P
2072.563,0.275,1043394,TEST_ORIENT,n/a,n/a,1,3,SHEET,BLANKET,FLAG,SHEET,18,"[0, 0, 0]",-999,PAL1,1,R1001P
2073.397,4.0,1043811,TEST_PROBE,n/a,wordpools/wordpool_EN.txt,1,3,SHEET,BLANKET,FLAG,SHEET,18,"[0, 0, 0]",-999,PAL1,1,R1001P
2073.397,1.618,1043811,REC_START,n/a,n/a,1,-999,n/a,BLANKET,n/a,n/a,18,"[0, 0, 0]",-999,PAL1,1,R1001P
2075.015,3.399,1044620,REC_EVENT,1.618,n/a,1,3,SHEET,BLANKET,FLAG,SHEET,18,"[0, 0, 0]",-999,PAL1,1,R1001P
2078.414,0.017,1046320,REC_END,n/a,n/a,1,-999,n/a,n/a,n/a,n/a,18,"[0, 0, 0]",-999,PAL1,1,R1001P
2078.431,0.275,1046328,TEST_ORIENT,n/a,n/a,6,4,SKY,JUICE,SKY,JUICE,18,"[0, 0, 0]",-999,PAL1,1,R1001P
2079.398,4.0,1046812,TEST_PROBE,n/a,wordpools/wordpool_EN.txt,6,4,SKY,JUICE,SKY,JUICE,18,"[0, 0, 0]",-999,PAL1,1,R1001P
2079.399,3.328,1046812,REC_START,n/a,n/a,6,-999,n/a,JUICE,n/a,n/a,18,"[0, 0, 0]",-999,PAL1,1,R1001P
2082.727,1.688,1048476,REC_EVENT,3.328,n/a,6,4,SKY,JUICE,SKY,JUICE,18,"[0, 0, 0]",-999,PAL1,1,R1001P
2084.415,0.017,1049320,REC_END,n/a,n/a,6,-999,n/a,n/a,n/a,n/a,18,"[0, 0, 0]",-999,PAL1,1,R1001P
2084.432,0.275,1049328,TEST_ORIENT,n/a,n/a,3,5,RAT,MOUSE,SPOON,RAT,18,"[0, 0, 0]",-999,PAL1,1,R1001P
2085.299,4.0,1049762,TEST_PROBE,n/a,wordpools/wordpool_EN.txt,3,5,RAT,MOUSE,SPOON,RAT,18,"[0, 0, 0]",-999,PAL1,1,R1001P
2085.299,1.345,1049762,REC_START,n/a,n/a,3,-999,n/a,MOUSE,n/a,n/a,18,"[0, 0, 0]",-999,PAL1,1,R1001P
2086.644,3.672,1050434,REC_EVENT,1.345,n/a,3,5,RAT,MOUSE,SPOON,RAT,18,"[0, 0, 0]",-999,PAL1,1,R1001P
2090.316,0.017,1052270,REC_END,n/a,n/a,3,-999,n/a,n/a,n/a,n/a,18,"[0, 0, 0]",-999,PAL1,1,R1001P
2090.333,0.275,1052279,TEST_ORIENT,n/a,n/a,4,6,ANT,n/a,RAIN,ANT,18,"[0, 0, 0]",-999,PAL1,1,R1001P
2091.334,4.0,1052779,TEST_PROBE,n/a,wordpools/wordpool_EN.txt,4,6,ANT,n/a,RAIN,ANT,18,"[0, 0, 0]",-999,PAL1,1,R1001P
2091.334,5.015,1052779,REC_START,n/a,n/a,4,-999,n/a,n/a,n/a,n/a,18,"[0, 0, 0]",-999,PAL1,1,R1001P
2096.349,0.002,1055287,REC_EVENT,5.015,n/a,4,6,ANT,<>,RAIN,ANT,18,"[0, 0, 0]",-999,PAL1,1,R1001P
2096.351,1.182,1055288,REC_END,n/a,n/a,4,-999,n/a,n/a,n/a,n/a,18,"[0, 0, 0]",-999,PAL1,1,R1001P
2097.533,10.437,1055879,ENCODING_START,n/a,n/a,0,-999,n/a,n/a,n/a,n/a,19,"[0, 0, 0]",-999,PAL1,1,R1001P
2107.97,0.275,1061097,STUDY_ORIENT,n/a,n/a,1,1,SHEEP,n/a,GLOVE,SHEEP,19,"[0, 0, 0]",-999,PAL1,1,R1001P
2108.804,4.0,1061514,STUDY_PAIR,n/a,wordpools/wordpool_EN.txt,1,1,SHEEP,n/a,GLOVE,SHEEP,19,"[0, 0, 0]",-999,PAL1,1,R1001P
2113.838,0.275,1064031,STUDY_ORIENT,n/a,n/a,2,2,FOOD,n/a,PLATE,FOOD,19,"[0, 0, 0]",-999,PAL1,1,R1001P
2114.838,4.0,1064531,STUDY_PAIR,n/a,wordpools/wordpool_EN.txt,2,2,FOOD,n/a,PLATE,FOOD,19,"[0, 0, 0]",-999,PAL1,1,R1001P
2119.856,0.275,1067039,STUDY_ORIENT,n/a,n/a,3,3,OAR,ANT,LAWN,OAR,19,"[0, 0, 0]",-999,PAL1,1,R1001P
2120.756,4.0,1067489,STUDY_PAIR,n/a,wordpools/wordpool_EN.txt,3,3,OAR,ANT,LAWN,OAR,19,"[0, 0, 0]",-999,PAL1,1,R1001P
2125.79,0.275,1070006,STUDY_ORIENT,n/a,n/a,4,6,SPEAR,n/a,SPEAR,SEED,19,"[0, 0, 0]",-999,PAL1,1,R1001P
2126.757,4.0,1070490,STUDY_PAIR,n/a,wordpools/wordpool_EN.txt,4,6,SPEAR,n/a,SPEAR,SEED,19,"[0, 0, 0]",-999,PAL1,1,R1001P
2131.791,0.275,1073007,STUDY_ORIENT,n/a,n/a,5,5,BRANCH,n/a,POND,BRANCH,19,"[0, 0, 0]",-999,PAL1,1,R1001P
2132.657,4.0,1073440,STUDY_PAIR,n/a,wordpools/wordpool_EN.txt,5,5,BRANCH,n/a,POND,BRANCH,19,"[0, 0, 0]",-999,PAL1,1,R1001P
2137.675,0.275,1075949,STUDY_ORIENT,n/a,n/a,6,4,POLE,n/a,POLE,CAGE,19,"[0, 0, 0]",-999,PAL1,1,R1001P
2138.476,4.0,1076349,STUDY_PAIR,n/a,wordpools/wordpool_EN.txt,6,4,POLE,n/a,POLE,CAGE,19,"[0, 0, 0]",-999,PAL1,1,R1001P
2142.494,0.999,1078358,START,n/a,n/a,-999,-999,n/a,n/a,n/a,n/a,19,"[-999, -999, -999]",-999,PAL1,1,R1001P
2143.493,0.017,1078857,MATH_START,n/a,n/a,-999,-999,n/a,n/a,n/a,n/a,19,"[0, 0, 0]",-999,PAL1,1,R1001P
2143.51,14.536,1078866,PROB,14.503,n/a,-999,-999,n/a,n/a,n/a,n/a,19,"[1, 8, 4]",13,PAL1,1,R1001P
2158.046,29.951,1086133,PROB,29.951,n/a,-999,-999,n/a,n/a,n/a,n/a,19,"[6, 5, 8]",18,PAL1,1,R1001P
2187.997,0.005,1101108,STOP,n/a,n/a,-999,-999,n/a,n/a,n/a,n/a,19,"[-999, -999, -999]",-999,PAL1,1,R1001P
2188.002,0.0,1101111,MATH_END,n/a,n/a,-999,-999,n/a,n/a,n/a,n/a,19,"[0, 0, 0]",-999,PAL1,1,R1001P
2188.002,0.017,1101111,TEST_START,n/a,n/a,-999,-999,n/a,n/a,n/a,n/a,19,"[0, 0, 0]",-999,PAL1,1,R1001P
2188.019,0.275,1101119,TEST_ORIENT,n/a,n/a,1,1,SHEEP,n/a,GLOVE,SHEEP,19,"[0, 0, 0]",-999,PAL1,1,R1001P
2188.852,4.0,1101536,TEST_PROBE,n/a,wordpools/wordpool_EN.txt,1,1,SHEEP,n/a,GLOVE,SHEEP,19,"[0, 0, 0]",-999,PAL1,1,R1001P
2188.853,5.009,1101536,REC_START,n/a,n/a,1,-999,n/a,n/a,n/a,n/a,19,"[0, 0, 0]",-999,PAL1,1,R1001P
2193.862,0.0,1104040,REC_EVENT,5.009,n/a,1,1,SHEEP,<>,GLOVE,SHEEP,19,"[0, 0, 0]",-999,PAL1,1,R1001P
2193.862,0.008,1104040,REC_END,n/a,n/a,1,-999,n/a,n/a,n/a,n/a,19,"[0, 0, 0]",-999,PAL1,1,R1001P
2193.87,0.275,1104044,TEST_ORIENT,n/a,n/a,2,2,FOOD,n/a,PLATE,FOOD,19,"[0, 0, 0]",-999,PAL1,1,R1001P
2194.887,4.0,1104553,TEST_PROBE,n/a,wordpools/wordpool_EN.txt,2,2,FOOD,n/a,PLATE,FOOD,19,"[0, 0, 0]",-999,PAL1,1,R1001P
2194.887,5.015,1104553,REC_START,n/a,n/a,2,-999,n/a,n/a,n/a,n/a,19,"[0, 0, 0]",-999,PAL1,1,R1001P
2199.902,0.002,1107060,REC_EVENT,5.015,n/a,2,2,FOOD,<>,PLATE,FOOD,19,"[0, 0, 0]",-999,PAL1,1,R1001P
2199.904,0.017,1107061,REC_END,n/a,n/a,2,-999,n/a,n/a,n/a,n/a,19,"[0, 0, 0]",-999,PAL1,1,R1001P
2199.921,0.275,1107070,TEST_ORIENT,n/a,n/a,3,3,OAR,ANT,LAWN,OAR,19,"[0, 0, 0]",-999,PAL1,1,R1001P
2200.805,4.0,1107512,TEST_PROBE,n/a,wordpools/wordpool_EN.txt,3,3,OAR,ANT,LAWN,OAR,19,"[0, 0, 0]",-999,PAL1,1,R1001P
2200.805,1.488,1107512,REC_START,n/a,n/a,3,-999,n/a,ANT,n/a,n/a,19,"[0, 0, 0]",-999,PAL1,1,R1001P
2202.293,3.529,1108256,REC_EVENT,1.488,n/a,3,3,OAR,ANT,LAWN,OAR,19,"[0, 0, 0]",-999,PAL1,1,R1001P
2205.822,0.017,1110020,REC_END,n/a,n/a,3,-999,n/a,n/a,n/a,n/a,19,"[0, 0, 0]",-999,PAL1,1,R1001P
2205.839,0.275,1110029,TEST_ORIENT,n/a,n/a,6,4,POLE,n/a,POLE,CAGE,19,"[0, 0, 0]",-999,PAL1,1,R1001P
2206.789,4.0,1110504,TEST_PROBE,n/a,wordpools/wordpool_EN.txt,6,4,POLE,n/a,POLE,CAGE,19,"[0, 0, 0]",-999,PAL1,1,R1001P
2206.79,5.009,1110504,REC_START,n/a,n/a,6,-999,n/a,n/a,n/a,n/a,19,"[0, 0, 0]",-999,PAL1,1,R1001P
2211.799,0.0,1113009,REC_END,n/a,n/a,6,-999,n/a,n/a,n/a,n/a,19,"[0, 0, 0]",-999,PAL1,1,R1001P
2211.799,0.008,1113009,REC_EVENT,5.009,n/a,6,4,POLE,<>,POLE,CAGE,19,"[0, 0, 0]",-999,PAL1,1,R1001P
2211.807,0.275,1113013,TEST_ORIENT,n/a,n/a,5,5,BRANCH,n/a,POND,BRANCH,19,"[0, 0, 0]",-999,PAL1,1,R1001P
2212.757,4.0,1113487,TEST_PROBE,n/a,wordpools/wordpool_EN.txt,5,5,BRANCH,n/a,POND,BRANCH,19,"[0, 0, 0]",-999,PAL1,1,R1001P
2212.758,5.015,1113488,REC_START,n/a,n/a,5,-999,n/a,n/a,n/a,n/a,19,"[0, 0, 0]",-999,PAL1,1,R1001P
2217.773,0.001,1115995,REC_EVENT,5.015,n/a,5,5,BRANCH,<>,POND,BRANCH,19,"[0, 0, 0]",-999,PAL1,1,R1001P
2217.774,0.017,1115996,REC_END,n/a,n/a,5,-999,n/a,n/a,n/a,n/a,19,"[0, 0, 0]",-999,PAL1,1,R1001P
2217.791,0.275,1116004,TEST_ORIENT,n/a,n/a,4,6,SPEAR,n/a,SPEAR,SEED,19,"[0, 0, 0]",-999,PAL1,1,R1001P
2218.707,4.0,1116462,TEST_PROBE,n/a,wordpools/wordpool_EN.txt,4,6,SPEAR,n/a,SPEAR,SEED,19,"[0, 0, 0]",-999,PAL1,1,R1001P
2218.708,5.009,1116463,REC_START,n/a,n/a,4,-999,n/a,n/a,n/a,n/a,19,"[0, 0, 0]",-999,PAL1,1,R1001P
2223.717,0.0,1118967,REC_EVENT,5.009,n/a,4,6,SPEAR,<>,SPEAR,SEED,19,"[0, 0, 0]",-999,PAL1,1,R1001P
2223.717,1.752,1118967,REC_END,n/a,n/a,4,-999,n/a,n/a,n/a,n/a,19,"[0, 0, 0]",-999,PAL1,1,R1001P
2225.469,10.442,1119843,ENCODING_START,n/a,n/a,0,-999,n/a,n/a,n/a,n/a,20,"[0, 0, 0]",-999,PAL1,1,R1001P
2235.911,0.275,1125064,STUDY_ORIENT,n/a,n/a,1,3,PET,n/a,ROOM,PET,20,"[0, 0, 0]",-999,PAL1,1,R1001P
2236.694,4.0,1125455,STUDY_PAIR,n/a,wordpools/wordpool_EN.txt,1,3,PET,n/a,ROOM,PET,20,"[0, 0, 0]",-999,PAL1,1,R1001P
2241.729,0.275,1127973,STUDY_ORIENT,n/a,n/a,2,4,HEN,n/a,HEN,SNOW,20,"[0, 0, 0]",-999,PAL1,1,R1001P
2242.513,4.0,1128365,STUDY_PAIR,n/a,wordpools/wordpool_EN.txt,2,4,HEN,n/a,HEN,SNOW,20,"[0, 0, 0]",-999,PAL1,1,R1001P
2247.547,0.275,1130882,STUDY_ORIENT,n/a,n/a,3,1,FLAME,n/a,NOSE,FLAME,20,"[0, 0, 0]",-999,PAL1,1,R1001P
