 onset,duration,sample,trial_type,response_time,stim_file,serialpos,probepos,probe_word,resp_word,study_1,study_2,list,test,answer,experiment,session,subject
0.0,72.763,39797,SESS_START,n/a,n/a,-999,-999,n/a,n/a,n/a,n/a,-999,"[0, 0, 0]",-999,PAL1,2,R1002P
72.763,1.016,76176,START,n/a,n/a,-999,-999,n/a,n/a,n/a,n/a,-1,"[-999, -999, -999]",-999,PAL1,2,R1002P
73.779,4.469,76684,PROB,4.434,n/a,-999,-999,n/a,n/a,n/a,n/a,-1,"[2, 8, 5]",15,PAL1,2,R1002P
78.248,5.967,78919,PROB,5.933,n/a,-999,-999,n/a,n/a,n/a,n/a,-1,"[7, 8, 6]",21,PAL1,2,R1002P
84.215,3.068,81902,PROB,3.038,n/a,-999,-999,n/a,n/a,n/a,n/a,-1,"[9, 1, 2]",12,PAL1,2,R1002P
87.283,15.738,83436,PROB,15.738,n/a,-999,-999,n/a,n/a,n/a,n/a,-1,"[8, 7, 7]",22,PAL1,2,R1002P
103.021,53.879,91305,STOP,n/a,n/a,-999,-999,n/a,n/a,n/a,n/a,-1,"[-999, -999, -999]",-999,PAL1,2,R1002P
156.9,10.448,118243,ENCODING_START,n/a,n/a,0,-999,n/a,n/a,n/a,n/a,1,"[0, 0, 0]",-999,PAL1,2,R1002P
167.348,0.275,123466,STUDY_ORIENT,n/a,n/a,1,1,SAIL,ROSE,SAIL,ROSE,1,"[0, 0, 0]",-999,PAL1,2,R1002P
168.148,4.0,123866,STUDY_PAIR,n/a,wordpools/wordpool_EN.txt,1,1,SAIL,ROSE,SAIL,ROSE,1,"[0, 0, 0]",-999,PAL1,2,R1002P
173.182,0.275,126383,STUDY_ORIENT,n/a,n/a,2,6,TEA,PASS,TEA,CROW,1,"[0, 0, 0]",-999,PAL1,2,R1002P
174.132,4.0,126858,STUDY_PAIR,n/a,wordpools/wordpool_EN.txt,2,6,TEA,PASS,TEA,CROW,1,"[0, 0, 0]",-999,PAL1,2,R1002P
179.15,0.275,129367,STUDY_ORIENT,n/a,n/a,3,3,YARD,PASS,TOAST,YARD,1,"[0, 0, 0]",-999,PAL1,2,R1002P
180.167,4.0,129875,STUDY_PAIR,n/a,wordpools/wordpool_EN.txt,3,3,YARD,PASS,TOAST,YARD,1,"[0, 0, 0]",-999,PAL1,2,R1002P
185.201,0.275,132392,STUDY_ORIENT,n/a,n/a,4,4,SLEEVE,PANTS,LEG,SLEEVE,1,"[0, 0, 0]",-999,PAL1,2,R1002P
186.135,4.0,132859,STUDY_PAIR,n/a,wordpools/wordpool_EN.txt,4,4,SLEEVE,PANTS,LEG,SLEEVE,1,"[0, 0, 0]",-999,PAL1,2,R1002P
191.169,0.275,135376,STUDY_ORIENT,n/a,n/a,5,5,PEAR,PIE,PIE,PEAR,1,"[0, 0, 0]",-999,PAL1,2,R1002P
192.003,4.0,135793,STUDY_PAIR,n/a,wordpools/wordpool_EN.txt,5,5,PEAR,PIE,PIE,PEAR,1,"[0, 0, 0]",-999,PAL1,2,R1002P
197.037,0.275,138310,STUDY_ORIENT,n/a,n/a,6,2,DOG,PASS,BLUSH,DOG,1,"[0, 0, 0]",-999,PAL1,2,R1002P
197.869,4.0,138726,STUDY_PAIR,n/a,wordpools/wordpool_EN.txt,6,2,DOG,PASS,BLUSH,DOG,1,"[0, 0, 0]",-999,PAL1,2,R1002P
201.87,1.0,140726,START,n/a,n/a,-999,-999,n/a,n/a,n/a,n/a,1,"[-999, -999, -999]",-999,PAL1,2,R1002P
202.87,0.017,141226,MATH_START,n/a,n/a,-999,-999,n/a,n/a,n/a,n/a,1,"[0, 0, 0]",-999,PAL1,2,R1002P
202.887,6.502,141235,PROB,6.47,n/a,-999,-999,n/a,n/a,n/a,n/a,1,"[3, 5, 2]",10,PAL1,2,R1002P
209.389,5.467,144486,PROB,5.439,n/a,-999,-999,n/a,n/a,n/a,n/a,1,"[8, 6, 2]",16,PAL1,2,R1002P
214.856,6.001,147219,PROB,5.972,n/a,-999,-999,n/a,n/a,n/a,n/a,1,"[2, 4, 7]",15,PAL1,2,R1002P
220.857,3.604,150219,PROB,3.604,n/a,-999,-999,n/a,n/a,n/a,n/a,1,"[5, 1, 9]",15,PAL1,2,R1002P
224.461,0.015,152021,STOP,n/a,n/a,-999,-999,n/a,n/a,n/a,n/a,1,"[-999, -999, -999]",-999,PAL1,2,R1002P
224.476,0.0,152029,MATH_END,n/a,n/a,-999,-999,n/a,n/a,n/a,n/a,1,"[0, 0, 0]",-999,PAL1,2,R1002P
224.476,0.016,152029,TEST_START,n/a,n/a,-999,-999,n/a,n/a,n/a,n/a,1,"[0, 0, 0]",-999,PAL1,2,R1002P
224.492,0.275,152037,TEST_ORIENT,n/a,n/a,1,1,SAIL,ROSE,SAIL,ROSE,1,"[0, 0, 0]",-999,PAL1,2,R1002P
225.292,4.0,152437,TEST_PROBE,n/a,wordpools/wordpool_EN.txt,1,1,SAIL,ROSE,SAIL,ROSE,1,"[0, 0, 0]",-999,PAL1,2,R1002P
225.293,3.55,152437,REC_START,n/a,n/a,1,-999,n/a,ROSE,n/a,n/a,1,"[0, 0, 0]",-999,PAL1,2,R1002P
228.843,1.458,154212,REC_EVENT,3.55,n/a,1,1,SAIL,ROSE,SAIL,ROSE,1,"[0, 0, 0]",-999,PAL1,2,R1002P
230.301,0.009,154941,REC_END,n/a,n/a,1,-999,n/a,n/a,n/a,n/a,1,"[0, 0, 0]",-999,PAL1,2,R1002P
230.31,0.275,154946,TEST_ORIENT,n/a,n/a,6,2,DOG,PASS,BLUSH,DOG,1,"[0, 0, 0]",-999,PAL1,2,R1002P
231.26,4.0,155421,TEST_PROBE,n/a,wordpools/wordpool_EN.txt,6,2,DOG,PASS,BLUSH,DOG,1,"[0, 0, 0]",-999,PAL1,2,R1002P
231.261,2.236,155421,REC_START,n/a,n/a,6,-999,n/a,PASS,n/a,n/a,1,"[0, 0, 0]",-999,PAL1,2,R1002P
233.497,2.764,156539,REC_EVENT,2.236,n/a,6,2,DOG,PASS,BLUSH,DOG,1,"[0, 0, 0]",-999,PAL1,2,R1002P
236.261,0.017,157921,REC_END,n/a,n/a,6,-999,n/a,n/a,n/a,n/a,1,"[0, 0, 0]",-999,PAL1,2,R1002P
236.278,0.275,157929,TEST_ORIENT,n/a,n/a,3,3,YARD,PASS,TOAST,YARD,1,"[0, 0, 0]",-999,PAL1,2,R1002P
237.095,4.0,158338,TEST_PROBE,n/a,wordpools/wordpool_EN.txt,3,3,YARD,PASS,TOAST,YARD,1,"[0, 0, 0]",-999,PAL1,2,R1002P
237.095,2.776,158338,REC_START,n/a,n/a,3,-999,n/a,PASS,n/a,n/a,1,"[0, 0, 0]",-999,PAL1,2,R1002P
239.871,2.241,159726,REC_EVENT,2.776,n/a,3,3,YARD,PASS,TOAST,YARD,1,"[0, 0, 0]",-999,PAL1,2,R1002P
242.112,0.017,160846,REC_END,n/a,n/a,3,-999,n/a,n/a,n/a,n/a,1,"[0, 0, 0]",-999,PAL1,2,R1002P
242.129,0.275,160855,TEST_ORIENT,n/a,n/a,4,4,SLEEVE,PANTS,LEG,SLEEVE,1,"[0, 0, 0]",-999,PAL1,2,R1002P
243.146,4.0,161363,TEST_PROBE,n/a,wordpools/wordpool_EN.txt,4,4,SLEEVE,PANTS,LEG,SLEEVE,1,"[0, 0, 0]",-999,PAL1,2,R1002P
243.146,3.57,161363,REC_START,n/a,n/a,4,-999,n/a,PANTS,n/a,n/a,1,"[0, 0, 0]",-999,PAL1,2,R1002P
246.716,1.447,163148,REC_EVENT,3.57,n/a,4,4,SLEEVE,PANTS,LEG,SLEEVE,1,"[0, 0, 0]",-999,PAL1,2,R1002P
248.163,0.017,163872,REC_END,n/a,n/a,4,-999,n/a,n/a,n/a,n/a,1,"[0, 0, 0]",-999,PAL1,2,R1002P
248.18,0.275,163880,TEST_ORIENT,n/a,n/a,5,5,PEAR,PIE,PIE,PEAR,1,"[0, 0, 0]",-999,PAL1,2,R1002P
249.014,4.0,164297,TEST_PROBE,n/a,wordpools/wordpool_EN.txt,5,5,PEAR,PIE,PIE,PEAR,1,"[0, 0, 0]",-999,PAL1,2,R1002P
249.014,3.17,164297,REC_START,n/a,n/a,5,-999,n/a,PIE,n/a,n/a,1,"[0, 0, 0]",-999,PAL1,2,R1002P
252.184,1.847,165882,REC_EVENT,3.17,n/a,5,5,PEAR,PIE,PIE,PEAR,1,"[0, 0, 0]",-999,PAL1,2,R1002P
254.031,0.017,166805,REC_END,n/a,n/a,5,-999,n/a,n/a,n/a,n/a,1,"[0, 0, 0]",-999,PAL1,2,R1002P
254.048,0.275,166814,TEST_ORIENT,n/a,n/a,2,6,TEA,PASS,TEA,CROW,1,"[0, 0, 0]",-999,PAL1,2,R1002P
255.031,4.0,167305,TEST_PROBE,n/a,wordpools/wordpool_EN.txt,2,6,TEA,PASS,TEA,CROW,1,"[0, 0, 0]",-999,PAL1,2,R1002P
255.032,3.283,167306,REC_START,n/a,n/a,2,-999,n/a,PASS,n/a,n/a,1,"[0, 0, 0]",-999,PAL1,2,R1002P
258.315,1.726,168947,REC_EVENT,3.283,n/a,2,6,TEA,PASS,TEA,CROW,1,"[0, 0, 0]",-999,PAL1,2,R1002P
260.041,2.212,169810,REC_END,n/a,n/a,2,-999,n/a,n/a,n/a,n/a,1,"[0, 0, 0]",-999,PAL1,2,R1002P
262.253,10.447,170916,ENCODING_START,n/a,n/a,0,-999,n/a,n/a,n/a,n/a,2,"[0, 0, 0]",-999,PAL1,2,R1002P
272.7,0.275,176139,STUDY_ORIENT,n/a,n/a,1,1,BANK,TOOL,TOOL,BANK,2,"[0, 0, 0]",-999,PAL1,2,R1002P
273.651,4.0,176615,STUDY_PAIR,n/a,wordpools/wordpool_EN.txt,1,1,BANK,TOOL,TOOL,BANK,2,"[0, 0, 0]",-999,PAL1,2,R1002P
278.685,0.275,179132,STUDY_ORIENT,n/a,n/a,2,6,STOVE,PASS,STOVE,MAZE,2,"[0, 0, 0]",-999,PAL1,2,R1002P
279.535,4.0,179557,STUDY_PAIR,n/a,wordpools/wordpool_EN.txt,2,6,STOVE,PASS,STOVE,MAZE,2,"[0, 0, 0]",-999,PAL1,2,R1002P
284.553,0.275,182066,STUDY_ORIENT,n/a,n/a,3,3,VAN,LAKE,LAKE,VAN,2,"[0, 0, 0]",-999,PAL1,2,R1002P
285.521,4.0,182550,STUDY_PAIR,n/a,wordpools/wordpool_EN.txt,3,3,VAN,LAKE,LAKE,VAN,2,"[0, 0, 0]",-999,PAL1,2,R1002P
290.554,0.275,185066,STUDY_ORIENT,n/a,n/a,4,4,FLUTE,PEA,FLUTE,PEA,2,"[0, 0, 0]",-999,PAL1,2,R1002P
291.554,4.0,185566,STUDY_PAIR,n/a,wordpools/wordpool_EN.txt,4,4,FLUTE,PEA,FLUTE,PEA,2,"[0, 0, 0]",-999,PAL1,2,R1002P
296.572,0.275,188075,STUDY_ORIENT,n/a,n/a,5,5,VINE,BARN,BARN,VINE,2,"[0, 0, 0]",-999,PAL1,2,R1002P
297.539,4.0,188558,STUDY_PAIR,n/a,wordpools/wordpool_EN.txt,5,5,VINE,BARN,BARN,VINE,2,"[0, 0, 0]",-999,PAL1,2,R1002P
302.573,0.275,191075,STUDY_ORIENT,n/a,n/a,6,2,DIME,PASS,VEST,DIME,2,"[0, 0, 0]",-999,PAL1,2,R1002P
303.457,4.0,191517,STUDY_PAIR,n/a,wordpools/wordpool_EN.txt,6,2,DIME,PASS,VEST,DIME,2,"[0, 0, 0]",-999,PAL1,2,R1002P
307.458,1.0,193517,START,n/a,n/a,-999,-999,n/a,n/a,n/a,n/a,2,"[-999, -999, -999]",-999,PAL1,2,R1002P
308.458,0.017,194017,MATH_START,n/a,n/a,-999,-999,n/a,n/a,n/a,n/a,2,"[0, 0, 0]",-999,PAL1,2,R1002P
308.475,5.266,194026,PROB,5.241,n/a,-999,-999,n/a,n/a,n/a,n/a,2,"[5, 1, 7]",13,PAL1,2,R1002P
313.741,4.101,196659,PROB,4.079,n/a,-999,-999,n/a,n/a,n/a,n/a,2,"[9, 2, 4]",15,PAL1,2,R1002P
317.842,3.569,198709,PROB,3.539,n/a,-999,-999,n/a,n/a,n/a,n/a,2,"[7, 6, 1]",14,PAL1,2,R1002P
321.411,3.934,200494,PROB,3.906,n/a,-999,-999,n/a,n/a,n/a,n/a,2,"[6, 8, 1]",15,PAL1,2,R1002P
325.345,3.132,202461,PROB,3.132,n/a,-999,-999,n/a,n/a,n/a,n/a,2,"[1, 9, 2]",12,PAL1,2,R1002P
328.477,0.018,204026,STOP,n/a,n/a,-999,-999,n/a,n/a,n/a,n/a,2,"[-999, -999, -999]",-999,PAL1,2,R1002P
328.495,0.0,204035,TEST_START,n/a,n/a,-999,-999,n/a,n/a,n/a,n/a,2,"[0, 0, 0]",-999,PAL1,2,R1002P
328.495,0.017,204035,MATH_END,n/a,n/a,-999,-999,n/a,n/a,n/a,n/a,2,"[0, 0, 0]",-999,PAL1,2,R1002P
328.512,0.275,204044,TEST_ORIENT,n/a,n/a,1,1,BANK,TOOL,TOOL,BANK,2,"[0, 0, 0]",-999,PAL1,2,R1002P
329.379,4.0,204477,TEST_PROBE,n/a,wordpools/wordpool_EN.txt,1,1,BANK,TOOL,TOOL,BANK,2,"[0, 0, 0]",-999,PAL1,2,R1002P
329.38,1.499,204478,REC_START,n/a,n/a,1,-999,n/a,TOOL,n/a,n/a,2,"[0, 0, 0]",-999,PAL1,2,R1002P
330.879,3.517,205227,REC_EVENT,1.499,n/a,1,1,BANK,TOOL,TOOL,BANK,2,"[0, 0, 0]",-999,PAL1,2,R1002P
334.396,0.017,206986,REC_END,n/a,n/a,1,-999,n/a,n/a,n/a,n/a,2,"[0, 0, 0]",-999,PAL1,2,R1002P
334.413,0.275,206994,TEST_ORIENT,n/a,n/a,6,2,DIME,PASS,VEST,DIME,2,"[0, 0, 0]",-999,PAL1,2,R1002P
335.23,4.0,207403,TEST_PROBE,n/a,wordpools/wordpool_EN.txt,6,2,DIME,PASS,VEST,DIME,2,"[0, 0, 0]",-999,PAL1,2,R1002P
335.231,2.792,207403,REC_START,n/a,n/a,6,-999,n/a,PASS,n/a,n/a,2,"[0, 0, 0]",-999,PAL1,2,R1002P
338.023,2.217,208799,REC_EVENT,2.792,n/a,6,2,DIME,PASS,VEST,DIME,2,"[0, 0, 0]",-999,PAL1,2,R1002P
340.24,0.008,209908,REC_END,n/a,n/a,6,-999,n/a,n/a,n/a,n/a,2,"[0, 0, 0]",-999,PAL1,2,R1002P
340.248,0.275,209912,TEST_ORIENT,n/a,n/a,3,3,VAN,LAKE,LAKE,VAN,2,"[0, 0, 0]",-999,PAL1,2,R1002P
341.115,4.0,210345,TEST_PROBE,n/a,wordpools/wordpool_EN.txt,3,3,VAN,LAKE,LAKE,VAN,2,"[0, 0, 0]",-999,PAL1,2,R1002P
341.115,1.538,210345,REC_START,n/a,n/a,3,-999,n/a,LAKE,n/a,n/a,2,"[0, 0, 0]",-999,PAL1,2,R1002P
342.653,3.479,211114,REC_EVENT,1.538,n/a,3,3,VAN,LAKE,LAKE,VAN,2,"[0, 0, 0]",-999,PAL1,2,R1002P
346.132,0.017,212853,REC_END,n/a,n/a,3,-999,n/a,n/a,n/a,n/a,2,"[0, 0, 0]",-999,PAL1,2,R1002P
346.149,0.275,212862,TEST_ORIENT,n/a,n/a,4,4,FLUTE,PEA,FLUTE,PEA,2,"[0, 0, 0]",-999,PAL1,2,R1002P
347.166,0.0,213370,REC_START,n/a,n/a,4,-999,n/a,PEA,n/a,n/a,2,"[0, 0, 0]",-999,PAL1,2,R1002P
347.166,4.0,213370,TEST_PROBE,n/a,wordpools/wordpool_EN.txt,4,4,FLUTE,PEA,FLUTE,PEA,2,"[0, 0, 0]",-999,PAL1,2,R1002P
348.225,3.958,213900,REC_EVENT,1.059,n/a,4,4,FLUTE,PEA,FLUTE,PEA,2,"[0, 0, 0]",-999,PAL1,2,R1002P
352.183,0.017,215879,REC_END,n/a,n/a,4,-999,n/a,n/a,n/a,n/a,2,"[0, 0, 0]",-999,PAL1,2,R1002P
352.2,0.275,215887,TEST_ORIENT,n/a,n/a,5,5,VINE,BARN,BARN,VINE,2,"[0, 0, 0]",-999,PAL1,2,R1002P
353.017,4.0,216296,TEST_PROBE,n/a,wordpools/wordpool_EN.txt,5,5,VINE,BARN,BARN,VINE,2,"[0, 0, 0]",-999,PAL1,2,R1002P
353.018,1.954,216296,REC_START,n/a,n/a,5,-999,n/a,BARN,n/a,n/a,2,"[0, 0, 0]",-999,PAL1,2,R1002P
354.972,3.062,217273,REC_EVENT,1.954,n/a,5,5,VINE,BARN,BARN,VINE,2,"[0, 0, 0]",-999,PAL1,2,R1002P
358.034,0.017,218804,REC_END,n/a,n/a,5,-999,n/a,n/a,n/a,n/a,2,"[0, 0, 0]",-999,PAL1,2,R1002P
358.051,0.275,218813,TEST_ORIENT,n/a,n/a,2,6,STOVE,PASS,STOVE,MAZE,2,"[0, 0, 0]",-999,PAL1,2,R1002P
358.917,4.0,219246,TEST_PROBE,n/a,wordpools/wordpool_EN.txt,2,6,STOVE,PASS,STOVE,MAZE,2,"[0, 0, 0]",-999,PAL1,2,R1002P
358.918,1.878,219246,REC_START,n/a,n/a,2,-999,n/a,PASS,n/a,n/a,2,"[0, 0, 0]",-999,PAL1,2,R1002P
360.796,3.138,220185,REC_EVENT,1.878,n/a,2,6,STOVE,PASS,STOVE,MAZE,2,"[0, 0, 0]",-999,PAL1,2,R1002P
363.934,1.766,221754,REC_END,n/a,n/a,2,-999,n/a,n/a,n/a,n/a,2,"[0, 0, 0]",-999,PAL1,2,R1002P
365.7,10.471,222637,ENCODING_START,n/a,n/a,0,-999,n/a,n/a,n/a,n/a,3,"[0, 0, 0]",-999,PAL1,2,R1002P
376.171,0.275,227872,STUDY_ORIENT,n/a,n/a,1,1,DOLL,PURSE,PURSE,DOLL,3,"[0, 0, 0]",-999,PAL1,2,R1002P
376.988,4.0,228281,STUDY_PAIR,n/a,wordpools/wordpool_EN.txt,1,1,DOLL,PURSE,PURSE,DOLL,3,"[0, 0, 0]",-999,PAL1,2,R1002P
382.006,0.275,230789,STUDY_ORIENT,n/a,n/a,2,4,CHIN,PET,PET,CHIN,3,"[0, 0, 0]",-999,PAL1,2,R1002P
382.973,4.0,231273,STUDY_PAIR,n/a,wordpools/wordpool_EN.txt,2,4,CHIN,PET,PET,CHIN,3,"[0, 0, 0]",-999,PAL1,2,R1002P
388.007,0.275,233790,STUDY_ORIENT,n/a,n/a,3,3,FOOT,FLAME,FOOT,FLAME,3,"[0, 0, 0]",-999,PAL1,2,R1002P
388.957,4.0,234265,STUDY_PAIR,n/a,wordpools/wordpool_EN.txt,3,3,FOOT,FLAME,FOOT,FLAME,3,"[0, 0, 0]",-999,PAL1,2,R1002P
393.975,0.275,236774,STUDY_ORIENT,n/a,n/a,4,6,POLE,PASS,BREAD,POLE,3,"[0, 0, 0]",-999,PAL1,2,R1002P
394.774,4.0,237173,STUDY_PAIR,n/a,wordpools/wordpool_EN.txt,4,6,POLE,PASS,BREAD,POLE,3,"[0, 0, 0]",-999,PAL1,2,R1002P
399.808,0.275,239690,STUDY_ORIENT,n/a,n/a,5,5,WAND,PASS,WAND,DRESS,3,"[0, 0, 0]",-999,PAL1,2,R1002P
400.608,4.0,240090,STUDY_PAIR,n/a,wordpools/wordpool_EN.txt,5,5,WAND,PASS,WAND,DRESS,3,"[0, 0, 0]",-999,PAL1,2,R1002P
405.626,0.275,242599,STUDY_ORIENT,n/a,n/a,6,2,ARM,ANT,ANT,ARM,3,"[0, 0, 0]",-999,PAL1,2,R1002P
406.576,4.0,243074,STUDY_PAIR,n/a,wordpools/wordpool_EN.txt,6,2,ARM,ANT,ANT,ARM,3,"[0, 0, 0]",-999,PAL1,2,R1002P
410.578,0.999,245075,START,n/a,n/a,-999,-999,n/a,n/a,n/a,n/a,3,"[-999, -999, -999]",-999,PAL1,2,R1002P
411.577,0.017,245574,MATH_START,n/a,n/a,-999,-999,n/a,n/a,n/a,n/a,3,"[0, 0, 0]",-999,PAL1,2,R1002P
411.594,3.852,245583,PROB,3.819,n/a,-999,-999,n/a,n/a,n/a,n/a,3,"[3, 7, 6]",16,PAL1,2,R1002P
415.446,5.366,247509,PROB,5.334,n/a,-999,-999,n/a,n/a,n/a,n/a,3,"[9, 8, 8]",27,PAL1,2,R1002P
420.812,4.185,250191,PROB,4.161,n/a,-999,-999,n/a,n/a,n/a,n/a,3,"[4, 5, 1]",10,PAL1,2,R1002P
424.997,5.607,252284,PROB,5.607,n/a,-999,-999,n/a,n/a,n/a,n/a,3,"[5, 6, 1]",12,PAL1,2,R1002P
430.604,0.01,255087,STOP,n/a,n/a,-999,-999,n/a,n/a,n/a,n/a,3,"[-999, -999, -999]",-999,PAL1,2,R1002P
430.614,0.0,255092,TEST_START,n/a,n/a,-999,-999,n/a,n/a,n/a,n/a,3,"[0, 0, 0]",-999,PAL1,2,R1002P
430.614,0.017,255092,MATH_END,n/a,n/a,-999,-999,n/a,n/a,n/a,n/a,3,"[0, 0, 0]",-999,PAL1,2,R1002P
430.631,0.275,255101,TEST_ORIENT,n/a,n/a,1,1,DOLL,PURSE,PURSE,DOLL,3,"[0, 0, 0]",-999,PAL1,2,R1002P
431.564,4.0,255567,TEST_PROBE,n/a,wordpools/wordpool_EN.txt,1,1,DOLL,PURSE,PURSE,DOLL,3,"[0, 0, 0]",-999,PAL1,2,R1002P
431.565,0.99,255568,REC_START,n/a,n/a,1,-999,n/a,PURSE,n/a,n/a,3,"[0, 0, 0]",-999,PAL1,2,R1002P
432.555,4.018,256063,REC_EVENT,0.99,n/a,1,1,DOLL,PURSE,PURSE,DOLL,3,"[0, 0, 0]",-999,PAL1,2,R1002P
436.573,0.009,258072,REC_END,n/a,n/a,1,-999,n/a,n/a,n/a,n/a,3,"[0, 0, 0]",-999,PAL1,2,R1002P
436.582,0.275,258076,TEST_ORIENT,n/a,n/a,6,2,ARM,ANT,ANT,ARM,3,"[0, 0, 0]",-999,PAL1,2,R1002P
437.5,4.0,258535,TEST_PROBE,n/a,wordpools/wordpool_EN.txt,6,2,ARM,ANT,ANT,ARM,3,"[0, 0, 0]",-999,PAL1,2,R1002P
437.5,0.974,258535,REC_START,n/a,n/a,6,-999,n/a,ANT,n/a,n/a,3,"[0, 0, 0]",-999,PAL1,2,R1002P
438.474,4.043,259022,REC_EVENT,0.974,n/a,6,2,ARM,ANT,ANT,ARM,3,"[0, 0, 0]",-999,PAL1,2,R1002P
442.517,0.016,261043,REC_END,n/a,n/a,6,-999,n/a,n/a,n/a,n/a,3,"[0, 0, 0]",-999,PAL1,2,R1002P
442.533,0.275,261051,TEST_ORIENT,n/a,n/a,3,3,FOOT,FLAME,FOOT,FLAME,3,"[0, 0, 0]",-999,PAL1,2,R1002P
443.384,4.0,261477,TEST_PROBE,n/a,wordpools/wordpool_EN.txt,3,3,FOOT,FLAME,FOOT,FLAME,3,"[0, 0, 0]",-999,PAL1,2,R1002P
443.385,1.614,261477,REC_START,n/a,n/a,3,-999,n/a,FLAME,n/a,n/a,3,"[0, 0, 0]",-999,PAL1,2,R1002P
444.999,3.394,262284,REC_EVENT,1.614,n/a,3,3,FOOT,FLAME,FOOT,FLAME,3,"[0, 0, 0]",-999,PAL1,2,R1002P
448.393,0.009,263981,REC_END,n/a,n/a,3,-999,n/a,n/a,n/a,n/a,3,"[0, 0, 0]",-999,PAL1,2,R1002P
448.402,0.275,263986,TEST_ORIENT,n/a,n/a,2,4,CHIN,PET,PET,CHIN,3,"[0, 0, 0]",-999,PAL1,2,R1002P
449.419,0.0,264494,REC_START,n/a,n/a,2,-999,n/a,PET,n/a,n/a,3,"[0, 0, 0]",-999,PAL1,2,R1002P
449.419,4.0,264494,TEST_PROBE,n/a,wordpools/wordpool_EN.txt,2,4,CHIN,PET,PET,CHIN,3,"[0, 0, 0]",-999,PAL1,2,R1002P
450.719,3.717,265144,REC_EVENT,1.3,n/a,2,4,CHIN,PET,PET,CHIN,3,"[0, 0, 0]",-999,PAL1,2,R1002P
454.436,0.017,267003,REC_END,n/a,n/a,2,-999,n/a,n/a,n/a,n/a,3,"[0, 0, 0]",-999,PAL1,2,R1002P
454.453,0.275,267011,TEST_ORIENT,n/a,n/a,5,5,WAND,PASS,WAND,DRESS,3,"[0, 0, 0]",-999,PAL1,2,R1002P
455.337,4.0,267453,TEST_PROBE,n/a,wordpools/wordpool_EN.txt,5,5,WAND,PASS,WAND,DRESS,3,"[0, 0, 0]",-999,PAL1,2,R1002P
455.337,1.645,267453,REC_START,n/a,n/a,5,-999,n/a,PASS,n/a,n/a,3,"[0, 0, 0]",-999,PAL1,2,R1002P
456.982,3.372,268275,REC_EVENT,1.645,n/a,5,5,WAND,PASS,WAND,DRESS,3,"[0, 0, 0]",-999,PAL1,2,R1002P
460.354,0.017,269961,REC_END,n/a,n/a,5,-999,n/a,n/a,n/a,n/a,3,"[0, 0, 0]",-999,PAL1,2,R1002P
460.371,0.275,269970,TEST_ORIENT,n/a,n/a,4,6,POLE,PASS,BREAD,POLE,3,"[0, 0, 0]",-999,PAL1,2,R1002P
461.404,4.0,270486,TEST_PROBE,n/a,wordpools/wordpool_EN.txt,4,6,POLE,PASS,BREAD,POLE,3,"[0, 0, 0]",-999,PAL1,2,R1002P
461.405,2.18,270487,REC_START,n/a,n/a,4,-999,n/a,PASS,n/a,n/a,3,"[0, 0, 0]",-999,PAL1,2,R1002P
463.585,2.828,271577,REC_EVENT,2.18,n/a,4,6,POLE,PASS,BREAD,POLE,3,"[0, 0, 0]",-999,PAL1,2,R1002P
466.413,1.832,272991,REC_END,n/a,n/a,4,-999,n/a,n/a,n/a,n/a,3,"[0, 0, 0]",-999,PAL1,2,R1002P
468.245,10.445,273907,ENCODING_START,n/a,n/a,0,-999,n/a,n/a,n/a,n/a,4,"[0, 0, 0]",-999,PAL1,2,R1002P
478.69,0.275,279129,STUDY_ORIENT,n/a,n/a,1,1,GRASS,SQUARE,SQUARE,GRASS,4,"[0, 0, 0]",-999,PAL1,2,R1002P
479.657,4.0,279612,STUDY_PAIR,n/a,wordpools/wordpool_EN.txt,1,1,GRASS,SQUARE,SQUARE,GRASS,4,"[0, 0, 0]",-999,PAL1,2,R1002P
484.691,0.275,282129,STUDY_ORIENT,n/a,n/a,2,4,BADGE,PASS,WEB,BADGE,4,"[0, 0, 0]",-999,PAL1,2,R1002P
485.641,4.0,282604,STUDY_PAIR,n/a,wordpools/wordpool_EN.txt,2,4,BADGE,PASS,WEB,BADGE,4,"[0, 0, 0]",-999,PAL1,2,R1002P
490.659,0.275,285113,STUDY_ORIENT,n/a,n/a,3,5,DUCK,PASS,KITE,DUCK,4,"[0, 0, 0]",-999,PAL1,2,R1002P
491.609,4.0,285588,STUDY_PAIR,n/a,wordpools/wordpool_EN.txt,3,5,DUCK,PASS,KITE,DUCK,4,"[0, 0, 0]",-999,PAL1,2,R1002P
496.627,0.275,288097,STUDY_ORIENT,n/a,n/a,4,6,BOX,SHRIMP,BOX,SHRIMP,4,"[0, 0, 0]",-999,PAL1,2,R1002P
497.61,4.0,288588,STUDY_PAIR,n/a,wordpools/wordpool_EN.txt,4,6,BOX,SHRIMP,BOX,SHRIMP,4,"[0, 0, 0]",-999,PAL1,2,R1002P
502.628,0.275,291097,STUDY_ORIENT,n/a,n/a,5,3,STORE,MAIL,STORE,MAIL,4,"[0, 0, 0]",-999,PAL1,2,R1002P
503.528,4.0,291547,STUDY_PAIR,n/a,wordpools/wordpool_EN.txt,5,3,STORE,MAIL,STORE,MAIL,4,"[0, 0, 0]",-999,PAL1,2,R1002P
508.546,0.275,294056,STUDY_ORIENT,n/a,n/a,6,2,CLAY,CUBE,CUBE,CLAY,4,"[0, 0, 0]",-999,PAL1,2,R1002P
509.464,4.0,294515,STUDY_PAIR,n/a,wordpools/wordpool_EN.txt,6,2,CLAY,CUBE,CUBE,CLAY,4,"[0, 0, 0]",-999,PAL1,2,R1002P
513.482,0.999,296524,START,n/a,n/a,-999,-999,n/a,n/a,n/a,n/a,4,"[-999, -999, -999]",-999,PAL1,2,R1002P
514.481,0.017,297023,MATH_START,n/a,n/a,-999,-999,n/a,n/a,n/a,n/a,4,"[0, 0, 0]",-999,PAL1,2,R1002P
514.498,4.768,297032,PROB,4.739,n/a,-999,-999,n/a,n/a,n/a,n/a,4,"[4, 5, 5]",14,PAL1,2,R1002P
519.266,4.25,299416,PROB,4.219,n/a,-999,-999,n/a,n/a,n/a,n/a,4,"[6, 8, 8]",24,PAL1,2,R1002P
523.516,4.417,301541,PROB,4.392,n/a,-999,-999,n/a,n/a,n/a,n/a,4,"[1, 8, 5]",14,PAL1,2,R1002P
527.933,4.068,303749,PROB,4.048,n/a,-999,-999,n/a,n/a,n/a,n/a,4,"[2, 1, 6]",9,PAL1,2,R1002P
532.001,7.779,305783,PROB,7.779,n/a,-999,-999,n/a,n/a,n/a,n/a,4,"[4, 7, 4]",15,PAL1,2,R1002P
539.78,0.005,309672,STOP,n/a,n/a,-999,-999,n/a,n/a,n/a,n/a,4,"[-999, -999, -999]",-999,PAL1,2,R1002P
539.785,0.0,309675,MATH_END,n/a,n/a,-999,-999,n/a,n/a,n/a,n/a,4,"[0, 0, 0]",-999,PAL1,2,R1002P
539.785,0.017,309675,TEST_START,n/a,n/a,-999,-999,n/a,n/a,n/a,n/a,4,"[0, 0, 0]",-999,PAL1,2,R1002P
539.802,0.275,309683,TEST_ORIENT,n/a,n/a,1,1,GRASS,SQUARE,SQUARE,GRASS,4,"[0, 0, 0]",-999,PAL1,2,R1002P
540.602,4.0,310083,TEST_PROBE,n/a,wordpools/wordpool_EN.txt,1,1,GRASS,SQUARE,SQUARE,GRASS,4,"[0, 0, 0]",-999,PAL1,2,R1002P
540.603,1.239,310084,REC_START,n/a,n/a,1,-999,n/a,SQUARE,n/a,n/a,4,"[0, 0, 0]",-999,PAL1,2,R1002P
541.842,3.777,310703,REC_EVENT,1.239,n/a,1,1,GRASS,SQUARE,SQUARE,GRASS,4,"[0, 0, 0]",-999,PAL1,2,R1002P
545.619,0.017,312592,REC_END,n/a,n/a,1,-999,n/a,n/a,n/a,n/a,4,"[0, 0, 0]",-999,PAL1,2,R1002P
545.636,0.275,312600,TEST_ORIENT,n/a,n/a,6,2,CLAY,CUBE,CUBE,CLAY,4,"[0, 0, 0]",-999,PAL1,2,R1002P
546.67,0.0,313117,REC_START,n/a,n/a,6,-999,n/a,CUBE,n/a,n/a,4,"[0, 0, 0]",-999,PAL1,2,R1002P
546.67,4.0,313117,TEST_PROBE,n/a,wordpools/wordpool_EN.txt,6,2,CLAY,CUBE,CUBE,CLAY,4,"[0, 0, 0]",-999,PAL1,2,R1002P
547.576,4.111,313570,REC_EVENT,0.906,n/a,6,2,CLAY,CUBE,CUBE,CLAY,4,"[0, 0, 0]",-999,PAL1,2,R1002P
551.687,0.017,315625,REC_END,n/a,n/a,6,-999,n/a,n/a,n/a,n/a,4,"[0, 0, 0]",-999,PAL1,2,R1002P
551.704,0.275,315634,TEST_ORIENT,n/a,n/a,5,3,STORE,MAIL,STORE,MAIL,4,"[0, 0, 0]",-999,PAL1,2,R1002P
552.588,4.0,316076,TEST_PROBE,n/a,wordpools/wordpool_EN.txt,5,3,STORE,MAIL,STORE,MAIL,4,"[0, 0, 0]",-999,PAL1,2,R1002P
552.588,1.214,316076,REC_START,n/a,n/a,5,-999,n/a,MAIL,n/a,n/a,4,"[0, 0, 0]",-999,PAL1,2,R1002P
553.802,3.803,316683,REC_EVENT,1.214,n/a,5,3,STORE,MAIL,STORE,MAIL,4,"[0, 0, 0]",-999,PAL1,2,R1002P
557.605,0.017,318584,REC_END,n/a,n/a,5,-999,n/a,n/a,n/a,n/a,4,"[0, 0, 0]",-999,PAL1,2,R1002P
557.622,0.275,318593,TEST_ORIENT,n/a,n/a,2,4,BADGE,PASS,WEB,BADGE,4,"[0, 0, 0]",-999,PAL1,2,R1002P
558.523,4.0,319043,TEST_PROBE,n/a,wordpools/wordpool_EN.txt,2,4,BADGE,PASS,WEB,BADGE,4,"[0, 0, 0]",-999,PAL1,2,R1002P
558.524,3.181,319044,REC_START,n/a,n/a,2,-999,n/a,PASS,n/a,n/a,4,"[0, 0, 0]",-999,PAL1,2,R1002P
561.705,1.827,320634,REC_EVENT,3.181,n/a,2,4,BADGE,PASS,WEB,BADGE,4,"[0, 0, 0]",-999,PAL1,2,R1002P
563.532,0.007,321548,REC_END,n/a,n/a,2,-999,n/a,n/a,n/a,n/a,4,"[0, 0, 0]",-999,PAL1,2,R1002P
563.539,0.275,321551,TEST_ORIENT,n/a,n/a,3,5,DUCK,PASS,KITE,DUCK,4,"[0, 0, 0]",-999,PAL1,2,R1002P
564.54,4.0,322052,TEST_PROBE,n/a,wordpools/wordpool_EN.txt,3,5,DUCK,PASS,KITE,DUCK,4,"[0, 0, 0]",-999,PAL1,2,R1002P
564.54,3.714,322052,REC_START,n/a,n/a,3,-999,n/a,PASS,n/a,n/a,4,"[0, 0, 0]",-999,PAL1,2,R1002P
568.254,1.304,323908,REC_EVENT,3.714,n/a,3,5,DUCK,PASS,KITE,DUCK,4,"[0, 0, 0]",-999,PAL1,2,R1002P
569.558,0.016,324560,REC_END,n/a,n/a,3,-999,n/a,n/a,n/a,n/a,4,"[0, 0, 0]",-999,PAL1,2,R1002P
569.574,0.275,324568,TEST_ORIENT,n/a,n/a,4,6,BOX,SHRIMP,BOX,SHRIMP,4,"[0, 0, 0]",-999,PAL1,2,R1002P
570.442,4.0,325002,TEST_PROBE,n/a,wordpools/wordpool_EN.txt,4,6,BOX,SHRIMP,BOX,SHRIMP,4,"[0, 0, 0]",-999,PAL1,2,R1002P
570.443,1.3,325003,REC_START,n/a,n/a,4,-999,n/a,SHRIMP,n/a,n/a,4,"[0, 0, 0]",-999,PAL1,2,R1002P
571.743,3.715,325653,REC_EVENT,1.3,n/a,4,6,BOX,SHRIMP,BOX,SHRIMP,4,"[0, 0, 0]",-999,PAL1,2,R1002P
575.458,1.739,327510,REC_END,n/a,n/a,4,-999,n/a,n/a,n/a,n/a,4,"[0, 0, 0]",-999,PAL1,2,R1002P
577.197,10.448,328380,ENCODING_START,n/a,n/a,0,-999,n/a,n/a,n/a,n/a,5,"[0, 0, 0]",-999,PAL1,2,R1002P
587.645,0.275,333603,STUDY_ORIENT,n/a,n/a,1,1,CALF,JAIL,JAIL,CALF,5,"[0, 0, 0]",-999,PAL1,2,R1002P
588.545,4.0,334053,STUDY_PAIR,n/a,wordpools/wordpool_EN.txt,1,1,CALF,JAIL,JAIL,CALF,5,"[0, 0, 0]",-999,PAL1,2,R1002P
593.579,0.275,336570,STUDY_ORIENT,n/a,n/a,2,2,GLOVE,FUDGE,FUDGE,GLOVE,5,"[0, 0, 0]",-999,PAL1,2,R1002P
594.463,4.0,337012,STUDY_PAIR,n/a,wordpools/wordpool_EN.txt,2,2,GLOVE,FUDGE,FUDGE,GLOVE,5,"[0, 0, 0]",-999,PAL1,2,R1002P
599.481,0.275,339521,STUDY_ORIENT,n/a,n/a,3,3,FRUIT,BATH,FRUIT,BATH,5,"[0, 0, 0]",-999,PAL1,2,R1002P
600.481,4.0,340021,STUDY_PAIR,n/a,wordpools/wordpool_EN.txt,3,3,FRUIT,BATH,FRUIT,BATH,5,"[0, 0, 0]",-999,PAL1,2,R1002P
605.499,0.275,342530,STUDY_ORIENT,n/a,n/a,4,4,MAP,MILK,MILK,MAP,5,"[0, 0, 0]",-999,PAL1,2,R1002P
606.282,4.0,342921,STUDY_PAIR,n/a,wordpools/wordpool_EN.txt,4,4,MAP,MILK,MILK,MAP,5,"[0, 0, 0]",-999,PAL1,2,R1002P
611.3,0.275,345430,STUDY_ORIENT,n/a,n/a,5,5,BRUSH,PLATE,BRUSH,PLATE,5,"[0, 0, 0]",-999,PAL1,2,R1002P
612.267,4.0,345914,STUDY_PAIR,n/a,wordpools/wordpool_EN.txt,5,5,BRUSH,PLATE,BRUSH,PLATE,5,"[0, 0, 0]",-999,PAL1,2,R1002P
617.301,0.275,348431,STUDY_ORIENT,n/a,n/a,6,6,CHEEK,PASS,TOAD,CHEEK,5,"[0, 0, 0]",-999,PAL1,2,R1002P
618.284,4.0,348922,STUDY_PAIR,n/a,wordpools/wordpool_EN.txt,6,6,CHEEK,PASS,TOAD,CHEEK,5,"[0, 0, 0]",-999,PAL1,2,R1002P
622.286,0.999,350923,START,n/a,n/a,-999,-999,n/a,n/a,n/a,n/a,5,"[-999, -999, -999]",-999,PAL1,2,R1002P
623.285,0.017,351422,MATH_START,n/a,n/a,-999,-999,n/a,n/a,n/a,n/a,5,"[0, 0, 0]",-999,PAL1,2,R1002P
623.302,4.417,351431,PROB,4.382,n/a,-999,-999,n/a,n/a,n/a,n/a,5,"[9, 9, 2]",20,PAL1,2,R1002P
627.719,3.652,353639,PROB,3.622,n/a,-999,-999,n/a,n/a,n/a,n/a,5,"[9, 9, 3]",21,PAL1,2,R1002P
631.371,4.917,355465,PROB,4.898,n/a,-999,-999,n/a,n/a,n/a,n/a,5,"[4, 3, 4]",11,PAL1,2,R1002P
636.288,8.077,357924,PROB,8.077,n/a,-999,-999,n/a,n/a,n/a,n/a,5,"[9, 7, 9]",28,PAL1,2,R1002P
644.365,0.008,361962,STOP,n/a,n/a,-999,-999,n/a,n/a,n/a,n/a,5,"[-999, -999, -999]",-999,PAL1,2,R1002P
644.373,0.0,361966,MATH_END,n/a,n/a,-999,-999,n/a,n/a,n/a,n/a,5,"[0, 0, 0]",-999,PAL1,2,R1002P
644.373,0.017,361966,TEST_START,n/a,n/a,-999,-999,n/a,n/a,n/a,n/a,5,"[0, 0, 0]",-999,PAL1,2,R1002P
644.39,0.275,361974,TEST_ORIENT,n/a,n/a,1,1,CALF,JAIL,JAIL,CALF,5,"[0, 0, 0]",-999,PAL1,2,R1002P
645.223,4.0,362391,TEST_PROBE,n/a,wordpools/wordpool_EN.txt,1,1,CALF,JAIL,JAIL,CALF,5,"[0, 0, 0]",-999,PAL1,2,R1002P
645.224,1.88,362391,REC_START,n/a,n/a,1,-999,n/a,JAIL,n/a,n/a,5,"[0, 0, 0]",-999,PAL1,2,R1002P
647.104,3.129,363331,REC_EVENT,1.88,n/a,1,1,CALF,JAIL,JAIL,CALF,5,"[0, 0, 0]",-999,PAL1,2,R1002P
650.233,0.008,364896,REC_END,n/a,n/a,1,-999,n/a,n/a,n/a,n/a,5,"[0, 0, 0]",-999,PAL1,2,R1002P
650.241,0.275,364900,TEST_ORIENT,n/a,n/a,2,2,GLOVE,FUDGE,FUDGE,GLOVE,5,"[0, 0, 0]",-999,PAL1,2,R1002P
651.158,4.0,365358,TEST_PROBE,n/a,wordpools/wordpool_EN.txt,2,2,GLOVE,FUDGE,FUDGE,GLOVE,5,"[0, 0, 0]",-999,PAL1,2,R1002P
651.158,1.537,365358,REC_START,n/a,n/a,2,-999,n/a,FUDGE,n/a,n/a,5,"[0, 0, 0]",-999,PAL1,2,R1002P
652.695,3.48,366127,REC_EVENT,1.537,n/a,2,2,GLOVE,FUDGE,FUDGE,GLOVE,5,"[0, 0, 0]",-999,PAL1,2,R1002P
656.175,0.017,367867,REC_END,n/a,n/a,2,-999,n/a,n/a,n/a,n/a,5,"[0, 0, 0]",-999,PAL1,2,R1002P
656.192,0.275,367875,TEST_ORIENT,n/a,n/a,3,3,FRUIT,BATH,FRUIT,BATH,5,"[0, 0, 0]",-999,PAL1,2,R1002P
657.159,4.0,368359,TEST_PROBE,n/a,wordpools/wordpool_EN.txt,3,3,FRUIT,BATH,FRUIT,BATH,5,"[0, 0, 0]",-999,PAL1,2,R1002P
657.159,3.43,368359,REC_START,n/a,n/a,3,-999,n/a,BATH,n/a,n/a,5,"[0, 0, 0]",-999,PAL1,2,R1002P
660.589,1.587,370073,REC_EVENT,3.43,n/a,3,3,FRUIT,BATH,FRUIT,BATH,5,"[0, 0, 0]",-999,PAL1,2,R1002P
662.176,0.017,370867,REC_END,n/a,n/a,3,-999,n/a,n/a,n/a,n/a,5,"[0, 0, 0]",-999,PAL1,2,R1002P
662.193,0.275,370875,TEST_ORIENT,n/a,n/a,4,4,MAP,MILK,MILK,MAP,5,"[0, 0, 0]",-999,PAL1,2,R1002P
663.06,4.0,371309,TEST_PROBE,n/a,wordpools/wordpool_EN.txt,4,4,MAP,MILK,MILK,MAP,5,"[0, 0, 0]",-999,PAL1,2,R1002P
663.06,1.234,371309,REC_START,n/a,n/a,4,-999,n/a,MILK,n/a,n/a,5,"[0, 0, 0]",-999,PAL1,2,R1002P
664.294,3.783,371926,REC_EVENT,1.234,n/a,4,4,MAP,MILK,MILK,MAP,5,"[0, 0, 0]",-999,PAL1,2,R1002P
668.077,0.017,373817,REC_END,n/a,n/a,4,-999,n/a,n/a,n/a,n/a,5,"[0, 0, 0]",-999,PAL1,2,R1002P
668.094,0.275,373826,TEST_ORIENT,n/a,n/a,5,5,BRUSH,PLATE,BRUSH,PLATE,5,"[0, 0, 0]",-999,PAL1,2,R1002P
668.961,4.0,374259,TEST_PROBE,n/a,wordpools/wordpool_EN.txt,5,5,BRUSH,PLATE,BRUSH,PLATE,5,"[0, 0, 0]",-999,PAL1,2,R1002P
668.961,1.247,374259,REC_START,n/a,n/a,5,-999,n/a,PLATE,n/a,n/a,5,"[0, 0, 0]",-999,PAL1,2,R1002P
670.208,3.771,374883,REC_EVENT,1.247,n/a,5,5,BRUSH,PLATE,BRUSH,PLATE,5,"[0, 0, 0]",-999,PAL1,2,R1002P
673.979,0.016,376768,REC_END,n/a,n/a,5,-999,n/a,n/a,n/a,n/a,5,"[0, 0, 0]",-999,PAL1,2,R1002P
673.995,0.275,376776,TEST_ORIENT,n/a,n/a,6,6,CHEEK,PASS,TOAD,CHEEK,5,"[0, 0, 0]",-999,PAL1,2,R1002P
674.979,4.0,377268,TEST_PROBE,n/a,wordpools/wordpool_EN.txt,6,6,CHEEK,PASS,TOAD,CHEEK,5,"[0, 0, 0]",-999,PAL1,2,R1002P
674.979,2.855,377268,REC_START,n/a,n/a,6,-999,n/a,PASS,n/a,n/a,5,"[0, 0, 0]",-999,PAL1,2,R1002P
677.834,2.169,378695,REC_EVENT,2.855,n/a,6,6,CHEEK,PASS,TOAD,CHEEK,5,"[0, 0, 0]",-999,PAL1,2,R1002P
680.003,1.905,379780,REC_END,n/a,n/a,6,-999,n/a,n/a,n/a,n/a,5,"[0, 0, 0]",-999,PAL1,2,R1002P
681.908,10.441,380732,ENCODING_START,n/a,n/a,0,-999,n/a,n/a,n/a,n/a,6,"[0, 0, 0]",-999,PAL1,2,R1002P
692.349,0.275,385953,STUDY_ORIENT,n/a,n/a,1,5,PASTE,HOLE,PASTE,HOLE,6,"[0, 0, 0]",-999,PAL1,2,R1002P
693.149,4.0,386353,STUDY_PAIR,n/a,wordpools/wordpool_EN.txt,1,5,PASTE,HOLE,PASTE,HOLE,6,"[0, 0, 0]",-999,PAL1,2,R1002P
698.167,0.275,388861,STUDY_ORIENT,n/a,n/a,2,4,CAPE,PASS,CAPE,RUG,6,"[0, 0, 0]",-999,PAL1,2,R1002P
699.134,4.0,389345,STUDY_PAIR,n/a,wordpools/wordpool_EN.txt,2,4,CAPE,PASS,CAPE,RUG,6,"[0, 0, 0]",-999,PAL1,2,R1002P
704.168,0.275,391862,STUDY_ORIENT,n/a,n/a,3,1,FISH,STORM,FISH,STORM,6,"[0, 0, 0]",-999,PAL1,2,R1002P
705.168,4.0,392362,STUDY_PAIR,n/a,wordpools/wordpool_EN.txt,3,1,FISH,STORM,FISH,STORM,6,"[0, 0, 0]",-999,PAL1,2,R1002P
710.186,0.275,394871,STUDY_ORIENT,n/a,n/a,4,2,RAKE,PASS,TRUCK,RAKE,6,"[0, 0, 0]",-999,PAL1,2,R1002P
711.136,4.0,395346,STUDY_PAIR,n/a,wordpools/wordpool_EN.txt,4,2,RAKE,PASS,TRUCK,RAKE,6,"[0, 0, 0]",-999,PAL1,2,R1002P
716.17,0.275,397862,STUDY_ORIENT,n/a,n/a,5,3,MUG,SMILE,MUG,SMILE,6,"[0, 0, 0]",-999,PAL1,2,R1002P
717.104,4.0,398329,STUDY_PAIR,n/a,wordpools/wordpool_EN.txt,5,3,MUG,SMILE,MUG,SMILE,6,"[0, 0, 0]",-999,PAL1,2,R1002P
722.138,0.275,400846,STUDY_ORIENT,n/a,n/a,6,6,JUICE,INK,INK,JUICE,6,"[0, 0, 0]",-999,PAL1,2,R1002P
722.921,4.0,401238,STUDY_PAIR,n/a,wordpools/wordpool_EN.txt,6,6,JUICE,INK,INK,JUICE,6,"[0, 0, 0]",-999,PAL1,2,R1002P
726.939,0.999,403247,START,n/a,n/a,-999,-999,n/a,n/a,n/a,n/a,6,"[-999, -999, -999]",-999,PAL1,2,R1002P
727.938,0.018,403746,MATH_START,n/a,n/a,-999,-999,n/a,n/a,n/a,n/a,6,"[0, 0, 0]",-999,PAL1,2,R1002P
727.956,4.583,403755,PROB,4.561,n/a,-999,-999,n/a,n/a,n/a,n/a,6,"[3, 9, 1]",13,PAL1,2,R1002P
732.539,3.568,406047,PROB,3.546,n/a,-999,-999,n/a,n/a,n/a,n/a,6,"[3, 7, 3]",13,PAL1,2,R1002P
736.107,5.584,407830,PROB,5.553,n/a,-999,-999,n/a,n/a,n/a,n/a,6,"[7, 6, 8]",21,PAL1,2,R1002P
741.691,3.518,410622,PROB,3.498,n/a,-999,-999,n/a,n/a,n/a,n/a,6,"[9, 4, 9]",22,PAL1,2,R1002P
745.209,5.619,412381,PROB,5.619,n/a,-999,-999,n/a,n/a,n/a,n/a,6,"[3, 7, 4]",14,PAL1,2,R1002P
750.828,0.015,415191,STOP,n/a,n/a,-999,-999,n/a,n/a,n/a,n/a,6,"[-999, -999, -999]",-999,PAL1,2,R1002P
750.843,0.0,415198,MATH_END,n/a,n/a,-999,-999,n/a,n/a,n/a,n/a,6,"[0, 0, 0]",-999,PAL1,2,R1002P
750.843,0.016,415198,TEST_START,n/a,n/a,-999,-999,n/a,n/a,n/a,n/a,6,"[0, 0, 0]",-999,PAL1,2,R1002P
750.859,0.275,415206,TEST_ORIENT,n/a,n/a,3,1,FISH,STORM,FISH,STORM,6,"[0, 0, 0]",-999,PAL1,2,R1002P
751.693,4.0,415623,TEST_PROBE,n/a,wordpools/wordpool_EN.txt,3,1,FISH,STORM,FISH,STORM,6,"[0, 0, 0]",-999,PAL1,2,R1002P
751.693,1.222,415623,REC_START,n/a,n/a,3,-999,n/a,STORM,n/a,n/a,6,"[0, 0, 0]",-999,PAL1,2,R1002P
752.915,3.795,416234,REC_EVENT,1.222,n/a,3,1,FISH,STORM,FISH,STORM,6,"[0, 0, 0]",-999,PAL1,2,R1002P
756.71,0.017,418131,REC_END,n/a,n/a,3,-999,n/a,n/a,n/a,n/a,6,"[0, 0, 0]",-999,PAL1,2,R1002P
756.727,0.275,418140,TEST_ORIENT,n/a,n/a,4,2,RAKE,PASS,TRUCK,RAKE,6,"[0, 0, 0]",-999,PAL1,2,R1002P
757.711,4.0,418632,TEST_PROBE,n/a,wordpools/wordpool_EN.txt,4,2,RAKE,PASS,TRUCK,RAKE,6,"[0, 0, 0]",-999,PAL1,2,R1002P
757.711,3.438,418632,REC_START,n/a,n/a,4,-999,n/a,PASS,n/a,n/a,6,"[0, 0, 0]",-999,PAL1,2,R1002P
761.149,1.579,420351,REC_EVENT,3.438,n/a,4,2,RAKE,PASS,TRUCK,RAKE,6,"[0, 0, 0]",-999,PAL1,2,R1002P
762.728,0.017,421140,REC_END,n/a,n/a,4,-999,n/a,n/a,n/a,n/a,6,"[0, 0, 0]",-999,PAL1,2,R1002P
762.745,0.275,421149,TEST_ORIENT,n/a,n/a,5,3,MUG,SMILE,MUG,SMILE,6,"[0, 0, 0]",-999,PAL1,2,R1002P
763.695,4.0,421624,TEST_PROBE,n/a,wordpools/wordpool_EN.txt,5,3,MUG,SMILE,MUG,SMILE,6,"[0, 0, 0]",-999,PAL1,2,R1002P
763.696,1.025,421624,REC_START,n/a,n/a,5,-999,n/a,SMILE,n/a,n/a,6,"[0, 0, 0]",-999,PAL1,2,R1002P
764.721,3.991,422137,REC_EVENT,1.025,n/a,5,3,MUG,SMILE,MUG,SMILE,6,"[0, 0, 0]",-999,PAL1,2,R1002P
768.712,0.017,424132,REC_END,n/a,n/a,5,-999,n/a,n/a,n/a,n/a,6,"[0, 0, 0]",-999,PAL1,2,R1002P
768.729,0.275,424141,TEST_ORIENT,n/a,n/a,2,4,CAPE,PASS,CAPE,RUG,6,"[0, 0, 0]",-999,PAL1,2,R1002P
769.696,4.0,424624,TEST_PROBE,n/a,wordpools/wordpool_EN.txt,2,4,CAPE,PASS,CAPE,RUG,6,"[0, 0, 0]",-999,PAL1,2,R1002P
769.697,3.14,424624,REC_START,n/a,n/a,2,-999,n/a,PASS,n/a,n/a,6,"[0, 0, 0]",-999,PAL1,2,R1002P
772.837,1.886,426194,REC_EVENT,3.14,n/a,2,4,CAPE,PASS,CAPE,RUG,6,"[0, 0, 0]",-999,PAL1,2,R1002P
774.723,0.007,427137,REC_END,n/a,n/a,2,-999,n/a,n/a,n/a,n/a,6,"[0, 0, 0]",-999,PAL1,2,R1002P
774.73,0.275,427141,TEST_ORIENT,n/a,n/a,1,5,PASTE,HOLE,PASTE,HOLE,6,"[0, 0, 0]",-999,PAL1,2,R1002P
775.681,0.0,427616,REC_START,n/a,n/a,1,-999,n/a,HOLE,n/a,n/a,6,"[0, 0, 0]",-999,PAL1,2,R1002P
775.681,4.0,427616,TEST_PROBE,n/a,wordpools/wordpool_EN.txt,1,5,PASTE,HOLE,PASTE,HOLE,6,"[0, 0, 0]",-999,PAL1,2,R1002P
777.084,3.614,428318,REC_EVENT,1.403,n/a,1,5,PASTE,HOLE,PASTE,HOLE,6,"[0, 0, 0]",-999,PAL1,2,R1002P
780.698,0.017,430125,REC_END,n/a,n/a,1,-999,n/a,n/a,n/a,n/a,6,"[0, 0, 0]",-999,PAL1,2,R1002P
780.715,0.275,430133,TEST_ORIENT,n/a,n/a,6,6,JUICE,INK,INK,JUICE,6,"[0, 0, 0]",-999,PAL1,2,R1002P
781.715,4.0,430633,TEST_PROBE,n/a,wordpools/wordpool_EN.txt,6,6,JUICE,INK,INK,JUICE,6,"[0, 0, 0]",-999,PAL1,2,R1002P
781.716,1.331,430634,REC_START,n/a,n/a,6,-999,n/a,INK,n/a,n/a,6,"[0, 0, 0]",-999,PAL1,2,R1002P
783.047,3.677,431299,REC_EVENT,1.331,n/a,6,6,JUICE,INK,INK,JUICE,6,"[0, 0, 0]",-999,PAL1,2,R1002P
786.724,1.912,433138,REC_END,n/a,n/a,6,-999,n/a,n/a,n/a,n/a,6,"[0, 0, 0]",-999,PAL1,2,R1002P
788.636,10.45,434093,ENCODING_START,n/a,n/a,0,-999,n/a,n/a,n/a,n/a,7,"[0, 0, 0]",-999,PAL1,2,R1002P
799.086,0.275,439318,STUDY_ORIENT,n/a,n/a,1,1,PIG,BRIDGE,PIG,BRIDGE,7,"[0, 0, 0]",-999,PAL1,2,R1002P
799.919,4.0,439735,STUDY_PAIR,n/a,wordpools/wordpool_EN.txt,1,1,PIG,BRIDGE,PIG,BRIDGE,7,"[0, 0, 0]",-999,PAL1,2,R1002P
804.954,0.275,442252,STUDY_ORIENT,n/a,n/a,2,2,SPEAR,KEY,SPEAR,KEY,7,"[0, 0, 0]",-999,PAL1,2,R1002P
805.903,4.0,442727,STUDY_PAIR,n/a,wordpools/wordpool_EN.txt,2,2,SPEAR,KEY,SPEAR,KEY,7,"[0, 0, 0]",-999,PAL1,2,R1002P
810.921,0.275,445235,STUDY_ORIENT,n/a,n/a,3,3,SPONGE,BLOOM,BLOOM,SPONGE,7,"[0, 0, 0]",-999,PAL1,2,R1002P
811.821,4.0,445685,STUDY_PAIR,n/a,wordpools/wordpool_EN.txt,3,3,SPONGE,BLOOM,BLOOM,SPONGE,7,"[0, 0, 0]",-999,PAL1,2,R1002P
816.855,0.275,448202,STUDY_ORIENT,n/a,n/a,4,4,STOOL,PASS,WOLF,STOOL,7,"[0, 0, 0]",-999,PAL1,2,R1002P
817.839,4.0,448694,STUDY_PAIR,n/a,wordpools/wordpool_EN.txt,4,4,STOOL,PASS,WOLF,STOOL,7,"[0, 0, 0]",-999,PAL1,2,R1002P
822.873,0.275,451211,STUDY_ORIENT,n/a,n/a,5,5,PIT,PASS,HORN,PIT,7,"[0, 0, 0]",-999,PAL1,2,R1002P
823.74,4.0,451645,STUDY_PAIR,n/a,wordpools/wordpool_EN.txt,5,5,PIT,PASS,HORN,PIT,7,"[0, 0, 0]",-999,PAL1,2,R1002P
828.774,0.275,454161,STUDY_ORIENT,n/a,n/a,6,6,FORK,WORM,FORK,WORM,7,"[0, 0, 0]",-999,PAL1,2,R1002P
829.741,4.0,454645,STUDY_PAIR,n/a,wordpools/wordpool_EN.txt,6,6,FORK,WORM,FORK,WORM,7,"[0, 0, 0]",-999,PAL1,2,R1002P
833.743,0.999,456646,START,n/a,n/a,-999,-999,n/a,n/a,n/a,n/a,7,"[-999, -999, -999]",-999,PAL1,2,R1002P
834.742,0.017,457145,MATH_START,n/a,n/a,-999,-999,n/a,n/a,n/a,n/a,7,"[0, 0, 0]",-999,PAL1,2,R1002P
834.759,4.618,457154,PROB,4.59,n/a,-999,-999,n/a,n/a,n/a,n/a,7,"[6, 6, 2]",14,PAL1,2,R1002P
839.377,4.568,459463,PROB,4.547,n/a,-999,-999,n/a,n/a,n/a,n/a,7,"[7, 6, 6]",19,PAL1,2,R1002P
843.945,4.9,461746,PROB,4.875,n/a,-999,-999,n/a,n/a,n/a,n/a,7,"[7, 9, 9]",25,PAL1,2,R1002P
848.845,3.418,464196,PROB,3.392,n/a,-999,-999,n/a,n/a,n/a,n/a,7,"[1, 4, 1]",6,PAL1,2,R1002P
852.263,4.269,465905,PROB,4.269,n/a,-999,-999,n/a,n/a,n/a,n/a,7,"[9, 5, 5]",19,PAL1,2,R1002P
856.532,0.014,468040,STOP,n/a,n/a,-999,-999,n/a,n/a,n/a,n/a,7,"[-999, -999, -999]",-999,PAL1,2,R1002P
856.546,0.0,468047,MATH_END,n/a,n/a,-999,-999,n/a,n/a,n/a,n/a,7,"[0, 0, 0]",-999,PAL1,2,R1002P
856.546,0.017,468047,TEST_START,n/a,n/a,-999,-999,n/a,n/a,n/a,n/a,7,"[0, 0, 0]",-999,PAL1,2,R1002P
856.563,0.275,468055,TEST_ORIENT,n/a,n/a,1,1,PIG,BRIDGE,PIG,BRIDGE,7,"[0, 0, 0]",-999,PAL1,2,R1002P
857.481,4.0,468514,TEST_PROBE,n/a,wordpools/wordpool_EN.txt,1,1,PIG,BRIDGE,PIG,BRIDGE,7,"[0, 0, 0]",-999,PAL1,2,R1002P
857.482,1.174,468515,REC_START,n/a,n/a,1,-999,n/a,BRIDGE,n/a,n/a,7,"[0, 0, 0]",-999,PAL1,2,R1002P
858.656,3.842,469102,REC_EVENT,1.174,n/a,1,1,PIG,BRIDGE,PIG,BRIDGE,7,"[0, 0, 0]",-999,PAL1,2,R1002P
862.498,0.017,471022,REC_END,n/a,n/a,1,-999,n/a,n/a,n/a,n/a,7,"[0, 0, 0]",-999,PAL1,2,R1002P
862.515,0.275,471031,TEST_ORIENT,n/a,n/a,2,2,SPEAR,KEY,SPEAR,KEY,7,"[0, 0, 0]",-999,PAL1,2,R1002P
863.465,4.0,471506,TEST_PROBE,n/a,wordpools/wordpool_EN.txt,2,2,SPEAR,KEY,SPEAR,KEY,7,"[0, 0, 0]",-999,PAL1,2,R1002P
863.466,1.224,471506,REC_START,n/a,n/a,2,-999,n/a,KEY,n/a,n/a,7,"[0, 0, 0]",-999,PAL1,2,R1002P
864.69,3.785,472118,REC_EVENT,1.224,n/a,2,2,SPEAR,KEY,SPEAR,KEY,7,"[0, 0, 0]",-999,PAL1,2,R1002P
868.475,0.008,474011,REC_END,n/a,n/a,2,-999,n/a,n/a,n/a,n/a,7,"[0, 0, 0]",-999,PAL1,2,R1002P
868.483,0.275,474015,TEST_ORIENT,n/a,n/a,3,3,SPONGE,BLOOM,BLOOM,SPONGE,7,"[0, 0, 0]",-999,PAL1,2,R1002P
869.516,4.0,474531,TEST_PROBE,n/a,wordpools/wordpool_EN.txt,3,3,SPONGE,BLOOM,BLOOM,SPONGE,7,"[0, 0, 0]",-999,PAL1,2,R1002P
869.517,2.869,474532,REC_START,n/a,n/a,3,-999,n/a,BLOOM,n/a,n/a,7,"[0, 0, 0]",-999,PAL1,2,R1002P
872.386,2.14,475966,REC_EVENT,2.869,n/a,3,3,SPONGE,BLOOM,BLOOM,SPONGE,7,"[0, 0, 0]",-999,PAL1,2,R1002P
874.526,0.007,477036,REC_END,n/a,n/a,3,-999,n/a,n/a,n/a,n/a,7,"[0, 0, 0]",-999,PAL1,2,R1002P
874.533,0.275,477040,TEST_ORIENT,n/a,n/a,4,4,STOOL,PASS,WOLF,STOOL,7,"[0, 0, 0]",-999,PAL1,2,R1002P
875.533,4.0,477540,TEST_PROBE,n/a,wordpools/wordpool_EN.txt,4,4,STOOL,PASS,WOLF,STOOL,7,"[0, 0, 0]",-999,PAL1,2,R1002P
875.534,3.646,477540,REC_START,n/a,n/a,4,-999,n/a,PASS,n/a,n/a,7,"[0, 0, 0]",-999,PAL1,2,R1002P
879.18,1.363,479363,REC_EVENT,3.646,n/a,4,4,STOOL,PASS,WOLF,STOOL,7,"[0, 0, 0]",-999,PAL1,2,R1002P
880.543,0.008,480044,REC_END,n/a,n/a,4,-999,n/a,n/a,n/a,n/a,7,"[0, 0, 0]",-999,PAL1,2,R1002P
880.551,0.275,480048,TEST_ORIENT,n/a,n/a,5,5,PIT,PASS,HORN,PIT,7,"[0, 0, 0]",-999,PAL1,2,R1002P
881.502,4.0,480524,TEST_PROBE,n/a,wordpools/wordpool_EN.txt,5,5,PIT,PASS,HORN,PIT,7,"[0, 0, 0]",-999,PAL1,2,R1002P
881.503,3.344,480524,REC_START,n/a,n/a,5,-999,n/a,PASS,n/a,n/a,7,"[0, 0, 0]",-999,PAL1,2,R1002P
884.847,1.665,482196,REC_EVENT,3.344,n/a,5,5,PIT,PASS,HORN,PIT,7,"[0, 0, 0]",-999,PAL1,2,R1002P
886.512,0.008,483029,REC_END,n/a,n/a,5,-999,n/a,n/a,n/a,n/a,7,"[0, 0, 0]",-999,PAL1,2,R1002P
886.52,0.275,483033,TEST_ORIENT,n/a,n/a,6,6,FORK,WORM,FORK,WORM,7,"[0, 0, 0]",-999,PAL1,2,R1002P
887.52,4.0,483533,TEST_PROBE,n/a,wordpools/wordpool_EN.txt,6,6,FORK,WORM,FORK,WORM,7,"[0, 0, 0]",-999,PAL1,2,R1002P
887.521,1.576,483533,REC_START,n/a,n/a,6,-999,n/a,WORM,n/a,n/a,7,"[0, 0, 0]",-999,PAL1,2,R1002P
889.097,3.447,484321,REC_EVENT,1.576,n/a,6,6,FORK,WORM,FORK,WORM,7,"[0, 0, 0]",-999,PAL1,2,R1002P
892.544,1.733,486045,REC_END,n/a,n/a,6,-999,n/a,n/a,n/a,n/a,7,"[0, 0, 0]",-999,PAL1,2,R1002P
894.277,10.445,486911,ENCODING_START,n/a,n/a,0,-999,n/a,n/a,n/a,n/a,8,"[0, 0, 0]",-999,PAL1,2,R1002P
904.722,0.275,492133,STUDY_ORIENT,n/a,n/a,1,1,STEAM,BOOK,STEAM,BOOK,8,"[0, 0, 0]",-999,PAL1,2,R1002P
905.622,4.0,492583,STUDY_PAIR,n/a,wordpools/wordpool_EN.txt,1,1,STEAM,BOOK,STEAM,BOOK,8,"[0, 0, 0]",-999,PAL1,2,R1002P
910.64,0.275,495092,STUDY_ORIENT,n/a,n/a,2,2,SCHOOL,SLUSH,SCHOOL,SLUSH,8,"[0, 0, 0]",-999,PAL1,2,R1002P
911.474,4.0,495509,STUDY_PAIR,n/a,wordpools/wordpool_EN.txt,2,2,SCHOOL,SLUSH,SCHOOL,SLUSH,8,"[0, 0, 0]",-999,PAL1,2,R1002P
916.492,0.275,498018,STUDY_ORIENT,n/a,n/a,3,5,HOOK,MOUSE,HOOK,MOUSE,8,"[0, 0, 0]",-999,PAL1,2,R1002P
917.376,4.0,498460,STUDY_PAIR,n/a,wordpools/wordpool_EN.txt,3,5,HOOK,MOUSE,HOOK,MOUSE,8,"[0, 0, 0]",-999,PAL1,2,R1002P
922.41,0.275,500977,STUDY_ORIENT,n/a,n/a,4,4,MOOSE,PASS,MOOSE,STRAW,8,"[0, 0, 0]",-999,PAL1,2,R1002P
923.31,4.0,501427,STUDY_PAIR,n/a,wordpools/wordpool_EN.txt,4,4,MOOSE,PASS,MOOSE,STRAW,8,"[0, 0, 0]",-999,PAL1,2,R1002P
928.328,0.275,503936,STUDY_ORIENT,n/a,n/a,5,3,ROOT,PASS,ROOT,PIN,8,"[0, 0, 0]",-999,PAL1,2,R1002P
929.161,4.0,504352,STUDY_PAIR,n/a,wordpools/wordpool_EN.txt,5,3,ROOT,PASS,ROOT,PIN,8,"[0, 0, 0]",-999,PAL1,2,R1002P
934.179,0.275,506861,STUDY_ORIENT,n/a,n/a,6,6,ROAD,PASS,THREAD,ROAD,8,"[0, 0, 0]",-999,PAL1,2,R1002P
935.012,4.0,507278,STUDY_PAIR,n/a,wordpools/wordpool_EN.txt,6,6,ROAD,PASS,THREAD,ROAD,8,"[0, 0, 0]",-999,PAL1,2,R1002P
939.013,1.0,509278,START,n/a,n/a,-999,-999,n/a,n/a,n/a,n/a,8,"[-999, -999, -999]",-999,PAL1,2,R1002P
940.013,0.017,509778,MATH_START,n/a,n/a,-999,-999,n/a,n/a,n/a,n/a,8,"[0, 0, 0]",-999,PAL1,2,R1002P
940.03,4.867,509786,PROB,4.838,n/a,-999,-999,n/a,n/a,n/a,n/a,8,"[2, 9, 2]",13,PAL1,2,R1002P
944.897,4.851,512220,PROB,4.819,n/a,-999,-999,n/a,n/a,n/a,n/a,8,"[3, 9, 2]",14,PAL1,2,R1002P
949.748,6.702,514645,PROB,6.673,n/a,-999,-999,n/a,n/a,n/a,n/a,8,"[8, 9, 3]",20,PAL1,2,R1002P
956.45,4.274,517996,PROB,4.274,n/a,-999,-999,n/a,n/a,n/a,n/a,8,"[6, 4, 4]",14,PAL1,2,R1002P
960.724,0.009,520133,STOP,n/a,n/a,-999,-999,n/a,n/a,n/a,n/a,8,"[-999, -999, -999]",-999,PAL1,2,R1002P
960.733,0.0,520137,MATH_END,n/a,n/a,-999,-999,n/a,n/a,n/a,n/a,8,"[0, 0, 0]",-999,PAL1,2,R1002P
960.733,0.017,520137,TEST_START,n/a,n/a,-999,-999,n/a,n/a,n/a,n/a,8,"[0, 0, 0]",-999,PAL1,2,R1002P
960.75,0.275,520146,TEST_ORIENT,n/a,n/a,1,1,STEAM,BOOK,STEAM,BOOK,8,"[0, 0, 0]",-999,PAL1,2,R1002P
961.717,4.0,520629,TEST_PROBE,n/a,wordpools/wordpool_EN.txt,1,1,STEAM,BOOK,STEAM,BOOK,8,"[0, 0, 0]",-999,PAL1,2,R1002P
961.717,1.384,520629,REC_START,n/a,n/a,1,-999,n/a,BOOK,n/a,n/a,8,"[0, 0, 0]",-999,PAL1,2,R1002P
963.101,3.633,521321,REC_EVENT,1.384,n/a,1,1,STEAM,BOOK,STEAM,BOOK,8,"[0, 0, 0]",-999,PAL1,2,R1002P
966.734,0.017,523138,REC_END,n/a,n/a,1,-999,n/a,n/a,n/a,n/a,8,"[0, 0, 0]",-999,PAL1,2,R1002P
966.751,0.275,523146,TEST_ORIENT,n/a,n/a,2,2,SCHOOL,SLUSH,SCHOOL,SLUSH,8,"[0, 0, 0]",-999,PAL1,2,R1002P
967.718,4.0,523630,TEST_PROBE,n/a,wordpools/wordpool_EN.txt,2,2,SCHOOL,SLUSH,SCHOOL,SLUSH,8,"[0, 0, 0]",-999,PAL1,2,R1002P
967.718,1.025,523630,REC_START,n/a,n/a,2,-999,n/a,SLUSH,n/a,n/a,8,"[0, 0, 0]",-999,PAL1,2,R1002P
968.743,4.001,524142,REC_EVENT,1.025,n/a,2,2,SCHOOL,SLUSH,SCHOOL,SLUSH,8,"[0, 0, 0]",-999,PAL1,2,R1002P
972.744,0.008,526143,REC_END,n/a,n/a,2,-999,n/a,n/a,n/a,n/a,8,"[0, 0, 0]",-999,PAL1,2,R1002P
972.752,0.275,526147,TEST_ORIENT,n/a,n/a,5,3,ROOT,PASS,ROOT,PIN,8,"[0, 0, 0]",-999,PAL1,2,R1002P
973.636,0.0,526588,REC_START,n/a,n/a,5,-999,n/a,PASS,n/a,n/a,8,"[0, 0, 0]",-999,PAL1,2,R1002P
973.636,4.0,526588,TEST_PROBE,n/a,wordpools/wordpool_EN.txt,5,3,ROOT,PASS,ROOT,PIN,8,"[0, 0, 0]",-999,PAL1,2,R1002P
977.699,0.954,528620,REC_EVENT,4.063,n/a,5,3,ROOT,PASS,ROOT,PIN,8,"[0, 0, 0]",-999,PAL1,2,R1002P
978.653,0.017,529097,REC_END,n/a,n/a,5,-999,n/a,n/a,n/a,n/a,8,"[0, 0, 0]",-999,PAL1,2,R1002P
978.67,0.275,529105,TEST_ORIENT,n/a,n/a,4,4,MOOSE,PASS,MOOSE,STRAW,8,"[0, 0, 0]",-999,PAL1,2,R1002P
979.57,4.0,529555,TEST_PROBE,n/a,wordpools/wordpool_EN.txt,4,4,MOOSE,PASS,MOOSE,STRAW,8,"[0, 0, 0]",-999,PAL1,2,R1002P
979.57,2.218,529555,REC_START,n/a,n/a,4,-999,n/a,PASS,n/a,n/a,8,"[0, 0, 0]",-999,PAL1,2,R1002P
981.788,2.8,530664,REC_EVENT,2.218,n/a,4,4,MOOSE,PASS,MOOSE,STRAW,8,"[0, 0, 0]",-999,PAL1,2,R1002P
984.588,0.016,532064,REC_END,n/a,n/a,4,-999,n/a,n/a,n/a,n/a,8,"[0, 0, 0]",-999,PAL1,2,R1002P
984.604,0.275,532072,TEST_ORIENT,n/a,n/a,3,5,HOOK,MOUSE,HOOK,MOUSE,8,"[0, 0, 0]",-999,PAL1,2,R1002P
985.571,4.0,532556,TEST_PROBE,n/a,wordpools/wordpool_EN.txt,3,5,HOOK,MOUSE,HOOK,MOUSE,8,"[0, 0, 0]",-999,PAL1,2,R1002P
985.572,1.919,532556,REC_START,n/a,n/a,3,-999,n/a,MOUSE,n/a,n/a,8,"[0, 0, 0]",-999,PAL1,2,R1002P
987.491,3.09,533516,REC_EVENT,1.919,n/a,3,5,HOOK,MOUSE,HOOK,MOUSE,8,"[0, 0, 0]",-999,PAL1,2,R1002P
990.581,0.008,535061,REC_END,n/a,n/a,3,-999,n/a,n/a,n/a,n/a,8,"[0, 0, 0]",-999,PAL1,2,R1002P
990.589,0.275,535065,TEST_ORIENT,n/a,n/a,6,6,ROAD,PASS,THREAD,ROAD,8,"[0, 0, 0]",-999,PAL1,2,R1002P
991.556,4.0,535548,TEST_PROBE,n/a,wordpools/wordpool_EN.txt,6,6,ROAD,PASS,THREAD,ROAD,8,"[0, 0, 0]",-999,PAL1,2,R1002P
991.556,2.921,535548,REC_START,n/a,n/a,6,-999,n/a,PASS,n/a,n/a,8,"[0, 0, 0]",-999,PAL1,2,R1002P
994.477,2.096,537008,REC_EVENT,2.921,n/a,6,6,ROAD,PASS,THREAD,ROAD,8,"[0, 0, 0]",-999,PAL1,2,R1002P
996.573,2.071,538056,REC_END,n/a,n/a,6,-999,n/a,n/a,n/a,n/a,8,"[0, 0, 0]",-999,PAL1,2,R1002P
998.644,10.449,539092,ENCODING_START,n/a,n/a,0,-999,n/a,n/a,n/a,n/a,9,"[0, 0, 0]",-999,PAL1,2,R1002P
1009.093,0.275,544316,STUDY_ORIENT,n/a,n/a,1,1,FAN,CHIEF,FAN,CHIEF,9,"[0, 0, 0]",-999,PAL1,2,R1002P
1009.96,4.0,544749,STUDY_PAIR,n/a,wordpools/wordpool_EN.txt,1,1,FAN,CHIEF,FAN,CHIEF,9,"[0, 0, 0]",-999,PAL1,2,R1002P
1014.978,0.275,547258,STUDY_ORIENT,n/a,n/a,2,2,TANK,PASS,TANK,LAMB,9,"[0, 0, 0]",-999,PAL1,2,R1002P
1015.945,4.0,547742,STUDY_PAIR,n/a,wordpools/wordpool_EN.txt,2,2,TANK,PASS,TANK,LAMB,9,"[0, 0, 0]",-999,PAL1,2,R1002P
1020.979,0.275,550259,STUDY_ORIENT,n/a,n/a,3,5,FOAM,PASS,WING,FOAM,9,"[0, 0, 0]",-999,PAL1,2,R1002P
1021.778,4.0,550658,STUDY_PAIR,n/a,wordpools/wordpool_EN.txt,3,5,FOAM,PASS,WING,FOAM,9,"[0, 0, 0]",-999,PAL1,2,R1002P
1026.796,0.275,553167,STUDY_ORIENT,n/a,n/a,4,4,SKUNK,CLIFF,CLIFF,SKUNK,9,"[0, 0, 0]",-999,PAL1,2,R1002P
1027.663,4.0,553601,STUDY_PAIR,n/a,wordpools/wordpool_EN.txt,4,4,SKUNK,CLIFF,CLIFF,SKUNK,9,"[0, 0, 0]",-999,PAL1,2,R1002P
1032.697,0.275,556117,STUDY_ORIENT,n/a,n/a,5,3,CASH,PASS,WHEEL,CASH,9,"[0, 0, 0]",-999,PAL1,2,R1002P
1033.647,4.0,556592,STUDY_PAIR,n/a,wordpools/wordpool_EN.txt,5,3,CASH,PASS,WHEEL,CASH,9,"[0, 0, 0]",-999,PAL1,2,R1002P
1038.665,0.275,559101,STUDY_ORIENT,n/a,n/a,6,6,THUMB,PASS,SHARK,THUMB,9,"[0, 0, 0]",-999,PAL1,2,R1002P
1039.565,4.0,559551,STUDY_PAIR,n/a,wordpools/wordpool_EN.txt,6,6,THUMB,PASS,SHARK,THUMB,9,"[0, 0, 0]",-999,PAL1,2,R1002P
1043.584,0.998,561561,START,n/a,n/a,-999,-999,n/a,n/a,n/a,n/a,9,"[-999, -999, -999]",-999,PAL1,2,R1002P
1044.582,0.017,562060,MATH_START,n/a,n/a,-999,-999,n/a,n/a,n/a,n/a,9,"[0, 0, 0]",-999,PAL1,2,R1002P
1044.599,4.702,562068,PROB,4.678,n/a,-999,-999,n/a,n/a,n/a,n/a,9,"[7, 2, 2]",11,PAL1,2,R1002P
1049.301,4.001,564419,PROB,3.976,n/a,-999,-999,n/a,n/a,n/a,n/a,9,"[1, 5, 2]",8,PAL1,2,R1002P
1053.302,3.167,566419,PROB,3.135,n/a,-999,-999,n/a,n/a,n/a,n/a,9,"[2, 5, 5]",12,PAL1,2,R1002P
1056.469,2.551,568003,PROB,2.52,n/a,-999,-999,n/a,n/a,n/a,n/a,9,"[3, 3, 3]",9,PAL1,2,R1002P
1059.02,6.52,569278,PROB,6.52,n/a,-999,-999,n/a,n/a,n/a,n/a,9,"[5, 2, 6]",13,PAL1,2,R1002P
1065.54,0.013,572538,STOP,n/a,n/a,-999,-999,n/a,n/a,n/a,n/a,9,"[-999, -999, -999]",-999,PAL1,2,R1002P
1065.553,0.0,572544,MATH_END,n/a,n/a,-999,-999,n/a,n/a,n/a,n/a,9,"[0, 0, 0]",-999,PAL1,2,R1002P
1065.553,0.017,572544,TEST_START,n/a,n/a,-999,-999,n/a,n/a,n/a,n/a,9,"[0, 0, 0]",-999,PAL1,2,R1002P
1065.57,0.275,572553,TEST_ORIENT,n/a,n/a,1,1,FAN,CHIEF,FAN,CHIEF,9,"[0, 0, 0]",-999,PAL1,2,R1002P
1066.554,0.0,573045,REC_START,n/a,n/a,1,-999,n/a,CHIEF,n/a,n/a,9,"[0, 0, 0]",-999,PAL1,2,R1002P
1066.554,4.0,573045,TEST_PROBE,n/a,wordpools/wordpool_EN.txt,1,1,FAN,CHIEF,FAN,CHIEF,9,"[0, 0, 0]",-999,PAL1,2,R1002P
1069.987,1.584,574761,REC_EVENT,3.433,n/a,1,1,FAN,CHIEF,FAN,CHIEF,9,"[0, 0, 0]",-999,PAL1,2,R1002P
1071.571,0.017,575553,REC_END,n/a,n/a,1,-999,n/a,n/a,n/a,n/a,9,"[0, 0, 0]",-999,PAL1,2,R1002P
1071.588,0.275,575562,TEST_ORIENT,n/a,n/a,2,2,TANK,PASS,TANK,LAMB,9,"[0, 0, 0]",-999,PAL1,2,R1002P
1072.439,4.0,575987,TEST_PROBE,n/a,wordpools/wordpool_EN.txt,2,2,TANK,PASS,TANK,LAMB,9,"[0, 0, 0]",-999,PAL1,2,R1002P
1072.439,4.204,575987,REC_START,n/a,n/a,2,-999,n/a,PASS,n/a,n/a,9,"[0, 0, 0]",-999,PAL1,2,R1002P
1076.643,0.813,578089,REC_EVENT,4.204,n/a,2,2,TANK,PASS,TANK,LAMB,9,"[0, 0, 0]",-999,PAL1,2,R1002P
1077.456,0.017,578496,REC_END,n/a,n/a,2,-999,n/a,n/a,n/a,n/a,9,"[0, 0, 0]",-999,PAL1,2,R1002P
1077.473,0.275,578504,TEST_ORIENT,n/a,n/a,5,3,CASH,PASS,WHEEL,CASH,9,"[0, 0, 0]",-999,PAL1,2,R1002P
1078.29,4.0,578913,TEST_PROBE,n/a,wordpools/wordpool_EN.txt,5,3,CASH,PASS,WHEEL,CASH,9,"[0, 0, 0]",-999,PAL1,2,R1002P
1078.291,2.878,578913,REC_START,n/a,n/a,5,-999,n/a,PASS,n/a,n/a,9,"[0, 0, 0]",-999,PAL1,2,R1002P
1081.169,2.15,580352,REC_EVENT,2.878,n/a,5,3,CASH,PASS,WHEEL,CASH,9,"[0, 0, 0]",-999,PAL1,2,R1002P
1083.319,0.022,581427,REC_END,n/a,n/a,5,-999,n/a,n/a,n/a,n/a,9,"[0, 0, 0]",-999,PAL1,2,R1002P
1083.341,0.275,581438,TEST_ORIENT,n/a,n/a,4,4,SKUNK,CLIFF,CLIFF,SKUNK,9,"[0, 0, 0]",-999,PAL1,2,R1002P
1084.158,4.0,581846,TEST_PROBE,n/a,wordpools/wordpool_EN.txt,4,4,SKUNK,CLIFF,CLIFF,SKUNK,9,"[0, 0, 0]",-999,PAL1,2,R1002P
1084.158,1.32,581846,REC_START,n/a,n/a,4,-999,n/a,CLIFF,n/a,n/a,9,"[0, 0, 0]",-999,PAL1,2,R1002P
1085.478,3.697,582506,REC_EVENT,1.32,n/a,4,4,SKUNK,CLIFF,CLIFF,SKUNK,9,"[0, 0, 0]",-999,PAL1,2,R1002P
1089.175,0.017,584355,REC_END,n/a,n/a,4,-999,n/a,n/a,n/a,n/a,9,"[0, 0, 0]",-999,PAL1,2,R1002P
1089.192,0.275,584363,TEST_ORIENT,n/a,n/a,3,5,FOAM,PASS,WING,FOAM,9,"[0, 0, 0]",-999,PAL1,2,R1002P
1090.009,4.0,584772,TEST_PROBE,n/a,wordpools/wordpool_EN.txt,3,5,FOAM,PASS,WING,FOAM,9,"[0, 0, 0]",-999,PAL1,2,R1002P
1090.01,4.341,584772,REC_START,n/a,n/a,3,-999,n/a,PASS,n/a,n/a,9,"[0, 0, 0]",-999,PAL1,2,R1002P
1094.351,0.675,586943,REC_EVENT,4.341,n/a,3,5,FOAM,PASS,WING,FOAM,9,"[0, 0, 0]",-999,PAL1,2,R1002P
1095.026,0.017,587280,REC_END,n/a,n/a,3,-999,n/a,n/a,n/a,n/a,9,"[0, 0, 0]",-999,PAL1,2,R1002P
1095.043,0.275,587289,TEST_ORIENT,n/a,n/a,6,6,THUMB,PASS,SHARK,THUMB,9,"[0, 0, 0]",-999,PAL1,2,R1002P
1096.01,4.0,587772,TEST_PROBE,n/a,wordpools/wordpool_EN.txt,6,6,THUMB,PASS,SHARK,THUMB,9,"[0, 0, 0]",-999,PAL1,2,R1002P
1096.011,2.361,587773,REC_START,n/a,n/a,6,-999,n/a,PASS,n/a,n/a,9,"[0, 0, 0]",-999,PAL1,2,R1002P
1098.372,2.649,588953,REC_EVENT,2.361,n/a,6,6,THUMB,PASS,SHARK,THUMB,9,"[0, 0, 0]",-999,PAL1,2,R1002P
1101.021,1.956,590278,REC_END,n/a,n/a,6,-999,n/a,n/a,n/a,n/a,9,"[0, 0, 0]",-999,PAL1,2,R1002P
1102.977,10.453,591255,ENCODING_START,n/a,n/a,0,-999,n/a,n/a,n/a,n/a,10,"[0, 0, 0]",-999,PAL1,2,R1002P
1113.43,0.275,596482,STUDY_ORIENT,n/a,n/a,1,5,FLAG,SPRING,FLAG,SPRING,10,"[0, 0, 0]",-999,PAL1,2,R1002P
1114.33,4.0,596932,STUDY_PAIR,n/a,wordpools/wordpool_EN.txt,1,5,FLAG,SPRING,FLAG,SPRING,10,"[0, 0, 0]",-999,PAL1,2,R1002P
1119.348,0.275,599441,STUDY_ORIENT,n/a,n/a,2,2,RAIN,STEM,RAIN,STEM,10,"[0, 0, 0]",-999,PAL1,2,R1002P
1120.265,4.0,599899,STUDY_PAIR,n/a,wordpools/wordpool_EN.txt,2,2,RAIN,STEM,RAIN,STEM,10,"[0, 0, 0]",-999,PAL1,2,R1002P
1125.299,0.275,602416,STUDY_ORIENT,n/a,n/a,3,1,PEACH,SNOW,SNOW,PEACH,10,"[0, 0, 0]",-999,PAL1,2,R1002P
1126.083,4.0,602808,STUDY_PAIR,n/a,wordpools/wordpool_EN.txt,3,1,PEACH,SNOW,SNOW,PEACH,10,"[0, 0, 0]",-999,PAL1,2,R1002P
1131.117,0.275,605325,STUDY_ORIENT,n/a,n/a,4,6,HAWK,SHEEP,SHEEP,HAWK,10,"[0, 0, 0]",-999,PAL1,2,R1002P
1131.95,4.0,605741,STUDY_PAIR,n/a,wordpools/wordpool_EN.txt,4,6,HAWK,SHEEP,SHEEP,HAWK,10,"[0, 0, 0]",-999,PAL1,2,R1002P
1136.968,0.275,608250,STUDY_ORIENT,n/a,n/a,5,3,TOOTH,SLIME,TOOTH,SLIME,10,"[0, 0, 0]",-999,PAL1,2,R1002P
1137.952,4.0,608742,STUDY_PAIR,n/a,wordpools/wordpool_EN.txt,5,3,TOOTH,SLIME,TOOTH,SLIME,10,"[0, 0, 0]",-999,PAL1,2,R1002P
1142.986,0.275,611259,STUDY_ORIENT,n/a,n/a,6,4,POOL,CRANE,POOL,CRANE,10,"[0, 0, 0]",-999,PAL1,2,R1002P
1143.969,4.0,611750,STUDY_PAIR,n/a,wordpools/wordpool_EN.txt,6,4,POOL,CRANE,POOL,CRANE,10,"[0, 0, 0]",-999,PAL1,2,R1002P
1147.97,1.0,613751,START,n/a,n/a,-999,-999,n/a,n/a,n/a,n/a,10,"[-999, -999, -999]",-999,PAL1,2,R1002P
1148.97,0.017,614251,MATH_START,n/a,n/a,-999,-999,n/a,n/a,n/a,n/a,10,"[0, 0, 0]",-999,PAL1,2,R1002P
1148.987,3.55,614259,PROB,3.522,n/a,-999,-999,n/a,n/a,n/a,n/a,10,"[2, 1, 6]",9,PAL1,2,R1002P
1152.537,6.902,616034,PROB,6.876,n/a,-999,-999,n/a,n/a,n/a,n/a,10,"[3, 5, 8]",16,PAL1,2,R1002P
1159.439,3.2,619485,PROB,3.173,n/a,-999,-999,n/a,n/a,n/a,n/a,10,"[1, 4, 6]",11,PAL1,2,R1002P
1162.639,6.021,621085,PROB,6.021,n/a,-999,-999,n/a,n/a,n/a,n/a,10,"[4, 8, 5]",17,PAL1,2,R1002P
1168.66,0.013,624095,STOP,n/a,n/a,-999,-999,n/a,n/a,n/a,n/a,10,"[-999, -999, -999]",-999,PAL1,2,R1002P
1168.673,0.0,624102,MATH_END,n/a,n/a,-999,-999,n/a,n/a,n/a,n/a,10,"[0, 0, 0]",-999,PAL1,2,R1002P
1168.673,0.017,624102,TEST_START,n/a,n/a,-999,-999,n/a,n/a,n/a,n/a,10,"[0, 0, 0]",-999,PAL1,2,R1002P
1168.69,0.275,624110,TEST_ORIENT,n/a,n/a,3,1,PEACH,SNOW,SNOW,PEACH,10,"[0, 0, 0]",-999,PAL1,2,R1002P
1169.69,0.0,624610,REC_START,n/a,n/a,3,-999,n/a,SNOW,n/a,n/a,10,"[0, 0, 0]",-999,PAL1,2,R1002P
1169.69,4.0,624610,TEST_PROBE,n/a,wordpools/wordpool_EN.txt,3,1,PEACH,SNOW,SNOW,PEACH,10,"[0, 0, 0]",-999,PAL1,2,R1002P
1171.133,3.574,625332,REC_EVENT,1.443,n/a,3,1,PEACH,SNOW,SNOW,PEACH,10,"[0, 0, 0]",-999,PAL1,2,R1002P
1174.707,0.017,627119,REC_END,n/a,n/a,3,-999,n/a,n/a,n/a,n/a,10,"[0, 0, 0]",-999,PAL1,2,R1002P
1174.724,0.275,627127,TEST_ORIENT,n/a,n/a,2,2,RAIN,STEM,RAIN,STEM,10,"[0, 0, 0]",-999,PAL1,2,R1002P
1175.674,4.0,627602,TEST_PROBE,n/a,wordpools/wordpool_EN.txt,2,2,RAIN,STEM,RAIN,STEM,10,"[0, 0, 0]",-999,PAL1,2,R1002P
1175.675,1.879,627603,REC_START,n/a,n/a,2,-999,n/a,STEM,n/a,n/a,10,"[0, 0, 0]",-999,PAL1,2,R1002P
1177.554,3.131,628542,REC_EVENT,1.879,n/a,2,2,RAIN,STEM,RAIN,STEM,10,"[0, 0, 0]",-999,PAL1,2,R1002P
1180.685,0.007,630107,REC_END,n/a,n/a,2,-999,n/a,n/a,n/a,n/a,10,"[0, 0, 0]",-999,PAL1,2,R1002P
1180.692,0.275,630111,TEST_ORIENT,n/a,n/a,5,3,TOOTH,SLIME,TOOTH,SLIME,10,"[0, 0, 0]",-999,PAL1,2,R1002P
1181.542,4.0,630536,TEST_PROBE,n/a,wordpools/wordpool_EN.txt,5,3,TOOTH,SLIME,TOOTH,SLIME,10,"[0, 0, 0]",-999,PAL1,2,R1002P
1181.543,1.3,630536,REC_START,n/a,n/a,5,-999,n/a,SLIME,n/a,n/a,10,"[0, 0, 0]",-999,PAL1,2,R1002P
1182.843,3.71,631186,REC_EVENT,1.3,n/a,5,3,TOOTH,SLIME,TOOTH,SLIME,10,"[0, 0, 0]",-999,PAL1,2,R1002P
1186.553,0.024,633041,REC_END,n/a,n/a,5,-999,n/a,n/a,n/a,n/a,10,"[0, 0, 0]",-999,PAL1,2,R1002P
1186.577,0.275,633053,TEST_ORIENT,n/a,n/a,6,4,POOL,CRANE,POOL,CRANE,10,"[0, 0, 0]",-999,PAL1,2,R1002P
1187.361,4.0,633445,TEST_PROBE,n/a,wordpools/wordpool_EN.txt,6,4,POOL,CRANE,POOL,CRANE,10,"[0, 0, 0]",-999,PAL1,2,R1002P
1187.362,2.064,633446,REC_START,n/a,n/a,6,-999,n/a,CRANE,n/a,n/a,10,"[0, 0, 0]",-999,PAL1,2,R1002P
1189.426,2.953,634478,REC_EVENT,2.064,n/a,6,4,POOL,CRANE,POOL,CRANE,10,"[0, 0, 0]",-999,PAL1,2,R1002P
1192.379,0.016,635954,REC_END,n/a,n/a,6,-999,n/a,n/a,n/a,n/a,10,"[0, 0, 0]",-999,PAL1,2,R1002P
1192.395,0.275,635962,TEST_ORIENT,n/a,n/a,1,5,FLAG,SPRING,FLAG,SPRING,10,"[0, 0, 0]",-999,PAL1,2,R1002P
1193.212,4.0,636371,TEST_PROBE,n/a,wordpools/wordpool_EN.txt,1,5,FLAG,SPRING,FLAG,SPRING,10,"[0, 0, 0]",-999,PAL1,2,R1002P
1193.213,0.99,636371,REC_START,n/a,n/a,1,-999,n/a,SPRING,n/a,n/a,10,"[0, 0, 0]",-999,PAL1,2,R1002P
1194.203,4.021,636866,REC_EVENT,0.99,n/a,1,5,FLAG,SPRING,FLAG,SPRING,10,"[0, 0, 0]",-999,PAL1,2,R1002P
1198.224,0.023,638876,REC_END,n/a,n/a,1,-999,n/a,n/a,n/a,n/a,10,"[0, 0, 0]",-999,PAL1,2,R1002P
1198.247,0.275,638888,TEST_ORIENT,n/a,n/a,4,6,HAWK,SHEEP,SHEEP,HAWK,10,"[0, 0, 0]",-999,PAL1,2,R1002P
1199.163,4.0,639346,TEST_PROBE,n/a,wordpools/wordpool_EN.txt,4,6,HAWK,SHEEP,SHEEP,HAWK,10,"[0, 0, 0]",-999,PAL1,2,R1002P
1199.164,1.72,639346,REC_START,n/a,n/a,4,-999,n/a,SHEEP,n/a,n/a,10,"[0, 0, 0]",-999,PAL1,2,R1002P
1200.884,3.28,640206,REC_EVENT,1.72,n/a,4,6,HAWK,SHEEP,SHEEP,HAWK,10,"[0, 0, 0]",-999,PAL1,2,R1002P
1204.164,2.177,641846,REC_END,n/a,n/a,4,-999,n/a,n/a,n/a,n/a,10,"[0, 0, 0]",-999,PAL1,2,R1002P
1206.341,10.442,642935,ENCODING_START,n/a,n/a,0,-999,n/a,n/a,n/a,n/a,11,"[0, 0, 0]",-999,PAL1,2,R1002P
1216.783,0.275,648155,STUDY_ORIENT,n/a,n/a,1,3,CAGE,PEARL,PEARL,CAGE,11,"[0, 0, 0]",-999,PAL1,2,R1002P
1217.733,4.0,648630,STUDY_PAIR,n/a,wordpools/wordpool_EN.txt,1,3,CAGE,PEARL,PEARL,CAGE,11,"[0, 0, 0]",-999,PAL1,2,R1002P
1222.767,0.275,651147,STUDY_ORIENT,n/a,n/a,2,4,PHONE,LEAF,PHONE,LEAF,11,"[0, 0, 0]",-999,PAL1,2,R1002P
1223.55,4.0,651539,STUDY_PAIR,n/a,wordpools/wordpool_EN.txt,2,4,PHONE,LEAF,PHONE,LEAF,11,"[0, 0, 0]",-999,PAL1,2,R1002P
1228.568,0.275,654048,STUDY_ORIENT,n/a,n/a,3,5,GOLD,LIP,LIP,GOLD,11,"[0, 0, 0]",-999,PAL1,2,R1002P
1229.503,4.0,654515,STUDY_PAIR,n/a,wordpools/wordpool_EN.txt,3,5,GOLD,LIP,LIP,GOLD,11,"[0, 0, 0]",-999,PAL1,2,R1002P
1234.536,0.275,657031,STUDY_ORIENT,n/a,n/a,4,6,GLASS,DOOR,DOOR,GLASS,11,"[0, 0, 0]",-999,PAL1,2,R1002P
1235.404,4.0,657465,STUDY_PAIR,n/a,wordpools/wordpool_EN.txt,4,6,GLASS,DOOR,DOOR,GLASS,11,"[0, 0, 0]",-999,PAL1,2,R1002P
1240.438,0.275,659982,STUDY_ORIENT,n/a,n/a,5,1,SHEET,PASS,BIRD,SHEET,11,"[0, 0, 0]",-999,PAL1,2,R1002P
1241.322,4.0,660424,STUDY_PAIR,n/a,wordpools/wordpool_EN.txt,5,1,SHEET,PASS,BIRD,SHEET,11,"[0, 0, 0]",-999,PAL1,2,R1002P
1246.356,0.275,662941,STUDY_ORIENT,n/a,n/a,6,2,STRING,PASS,STRING,WAVE,11,"[0, 0, 0]",-999,PAL1,2,R1002P
1247.273,4.0,663400,STUDY_PAIR,n/a,wordpools/wordpool_EN.txt,6,2,STRING,PASS,STRING,WAVE,11,"[0, 0, 0]",-999,PAL1,2,R1002P
1251.292,0.998,665409,START,n/a,n/a,-999,-999,n/a,n/a,n/a,n/a,11,"[-999, -999, -999]",-999,PAL1,2,R1002P
1252.29,0.017,665908,MATH_START,n/a,n/a,-999,-999,n/a,n/a,n/a,n/a,11,"[0, 0, 0]",-999,PAL1,2,R1002P
1252.307,6.367,665916,PROB,6.337,n/a,-999,-999,n/a,n/a,n/a,n/a,11,"[9, 6, 3]",18,PAL1,2,R1002P
1258.674,4.034,669100,PROB,4.01,n/a,-999,-999,n/a,n/a,n/a,n/a,11,"[9, 9, 6]",24,PAL1,2,R1002P
1262.708,4.485,671117,PROB,4.457,n/a,-999,-999,n/a,n/a,n/a,n/a,11,"[4, 3, 1]",8,PAL1,2,R1002P
1267.193,5.116,673359,PROB,5.116,n/a,-999,-999,n/a,n/a,n/a,n/a,11,"[8, 4, 7]",19,PAL1,2,R1002P
1272.309,0.019,675917,STOP,n/a,n/a,-999,-999,n/a,n/a,n/a,n/a,11,"[-999, -999, -999]",-999,PAL1,2,R1002P
1272.328,0.0,675926,MATH_END,n/a,n/a,-999,-999,n/a,n/a,n/a,n/a,11,"[0, 0, 0]",-999,PAL1,2,R1002P
1272.328,0.016,675926,TEST_START,n/a,n/a,-999,-999,n/a,n/a,n/a,n/a,11,"[0, 0, 0]",-999,PAL1,2,R1002P
1272.344,0.275,675934,TEST_ORIENT,n/a,n/a,5,1,SHEET,PASS,BIRD,SHEET,11,"[0, 0, 0]",-999,PAL1,2,R1002P
1273.161,0.0,676343,REC_START,n/a,n/a,5,-999,n/a,PASS,n/a,n/a,11,"[0, 0, 0]",-999,PAL1,2,R1002P
1273.161,4.0,676343,TEST_PROBE,n/a,wordpools/wordpool_EN.txt,5,1,SHEET,PASS,BIRD,SHEET,11,"[0, 0, 0]",-999,PAL1,2,R1002P
1277.501,0.677,678513,REC_EVENT,4.34,n/a,5,1,SHEET,PASS,BIRD,SHEET,11,"[0, 0, 0]",-999,PAL1,2,R1002P
1278.178,0.017,678851,REC_END,n/a,n/a,5,-999,n/a,n/a,n/a,n/a,11,"[0, 0, 0]",-999,PAL1,2,R1002P
1278.195,0.275,678860,TEST_ORIENT,n/a,n/a,6,2,STRING,PASS,STRING,WAVE,11,"[0, 0, 0]",-999,PAL1,2,R1002P
1279.196,4.0,679360,TEST_PROBE,n/a,wordpools/wordpool_EN.txt,6,2,STRING,PASS,STRING,WAVE,11,"[0, 0, 0]",-999,PAL1,2,R1002P
1279.196,2.013,679360,REC_START,n/a,n/a,6,-999,n/a,PASS,n/a,n/a,11,"[0, 0, 0]",-999,PAL1,2,R1002P
1281.209,1.22,680367,REC_EVENT,2.013,n/a,6,2,STRING,<>,STRING,WAVE,11,"[0, 0, 0]",-999,PAL1,2,R1002P
1282.429,0.782,680977,REC_EVENT,3.233,n/a,6,2,STRING,<>,STRING,WAVE,11,"[0, 0, 0]",-999,PAL1,2,R1002P
1283.211,1.002,681368,REC_EVENT,4.015,n/a,6,2,STRING,PASS,STRING,WAVE,11,"[0, 0, 0]",-999,PAL1,2,R1002P
1284.213,0.017,681869,REC_END,n/a,n/a,6,-999,n/a,n/a,n/a,n/a,11,"[0, 0, 0]",-999,PAL1,2,R1002P
1284.23,0.275,681877,TEST_ORIENT,n/a,n/a,1,3,CAGE,PEARL,PEARL,CAGE,11,"[0, 0, 0]",-999,PAL1,2,R1002P
1285.08,4.0,682302,TEST_PROBE,n/a,wordpools/wordpool_EN.txt,1,3,CAGE,PEARL,PEARL,CAGE,11,"[0, 0, 0]",-999,PAL1,2,R1002P
1285.081,1.256,682303,REC_START,n/a,n/a,1,-999,n/a,PEARL,n/a,n/a,11,"[0, 0, 0]",-999,PAL1,2,R1002P
1286.337,3.76,682931,REC_EVENT,1.256,n/a,1,3,CAGE,PEARL,PEARL,CAGE,11,"[0, 0, 0]",-999,PAL1,2,R1002P
1290.097,0.017,684810,REC_END,n/a,n/a,1,-999,n/a,n/a,n/a,n/a,11,"[0, 0, 0]",-999,PAL1,2,R1002P
1290.114,0.275,684819,TEST_ORIENT,n/a,n/a,2,4,PHONE,LEAF,PHONE,LEAF,11,"[0, 0, 0]",-999,PAL1,2,R1002P
1291.114,4.0,685319,TEST_PROBE,n/a,wordpools/wordpool_EN.txt,2,4,PHONE,LEAF,PHONE,LEAF,11,"[0, 0, 0]",-999,PAL1,2,R1002P
1291.115,1.952,685319,REC_START,n/a,n/a,2,-999,n/a,LEAF,n/a,n/a,11,"[0, 0, 0]",-999,PAL1,2,R1002P
1293.067,3.058,686295,REC_EVENT,1.952,n/a,2,4,PHONE,LEAF,PHONE,LEAF,11,"[0, 0, 0]",-999,PAL1,2,R1002P
1296.125,0.007,687824,REC_END,n/a,n/a,2,-999,n/a,n/a,n/a,n/a,11,"[0, 0, 0]",-999,PAL1,2,R1002P
1296.132,0.275,687828,TEST_ORIENT,n/a,n/a,3,5,GOLD,LIP,LIP,GOLD,11,"[0, 0, 0]",-999,PAL1,2,R1002P
1296.999,4.0,688261,TEST_PROBE,n/a,wordpools/wordpool_EN.txt,3,5,GOLD,LIP,LIP,GOLD,11,"[0, 0, 0]",-999,PAL1,2,R1002P
1296.999,1.997,688261,REC_START,n/a,n/a,3,-999,n/a,LIP,n/a,n/a,11,"[0, 0, 0]",-999,PAL1,2,R1002P
1298.996,3.02,689260,REC_EVENT,1.997,n/a,3,5,GOLD,LIP,LIP,GOLD,11,"[0, 0, 0]",-999,PAL1,2,R1002P
1302.016,0.017,690770,REC_END,n/a,n/a,3,-999,n/a,n/a,n/a,n/a,11,"[0, 0, 0]",-999,PAL1,2,R1002P
1302.033,0.275,690778,TEST_ORIENT,n/a,n/a,4,6,GLASS,DOOR,DOOR,GLASS,11,"[0, 0, 0]",-999,PAL1,2,R1002P
1303.0,4.0,691262,TEST_PROBE,n/a,wordpools/wordpool_EN.txt,4,6,GLASS,DOOR,DOOR,GLASS,11,"[0, 0, 0]",-999,PAL1,2,R1002P
1303.001,1.415,691262,REC_START,n/a,n/a,4,-999,n/a,DOOR,n/a,n/a,11,"[0, 0, 0]",-999,PAL1,2,R1002P
1304.416,3.612,691970,REC_EVENT,1.415,n/a,4,6,GLASS,DOOR,DOOR,GLASS,11,"[0, 0, 0]",-999,PAL1,2,R1002P
1308.028,2.465,693775,REC_END,n/a,n/a,4,-999,n/a,n/a,n/a,n/a,11,"[0, 0, 0]",-999,PAL1,2,R1002P
1310.493,10.461,695008,ENCODING_START,n/a,n/a,0,-999,n/a,n/a,n/a,n/a,12,"[0, 0, 0]",-999,PAL1,2,R1002P
1320.954,0.275,700238,STUDY_ORIENT,n/a,n/a,1,1,BROOM,WORLD,BROOM,WORLD,12,"[0, 0, 0]",-999,PAL1,2,R1002P
1321.769,4.0,700646,STUDY_PAIR,n/a,wordpools/wordpool_EN.txt,1,1,BROOM,WORLD,BROOM,WORLD,12,"[0, 0, 0]",-999,PAL1,2,R1002P
1326.787,0.275,703154,STUDY_ORIENT,n/a,n/a,2,2,NOSE,SKI,NOSE,SKI,12,"[0, 0, 0]",-999,PAL1,2,R1002P
1327.654,4.0,703588,STUDY_PAIR,n/a,wordpools/wordpool_EN.txt,2,2,NOSE,SKI,NOSE,SKI,12,"[0, 0, 0]",-999,PAL1,2,R1002P
1332.688,0.275,706105,STUDY_ORIENT,n/a,n/a,3,3,STAR,TRAY,STAR,TRAY,12,"[0, 0, 0]",-999,PAL1,2,R1002P
1333.638,4.0,706580,STUDY_PAIR,n/a,wordpools/wordpool_EN.txt,3,3,STAR,TRAY,STAR,TRAY,12,"[0, 0, 0]",-999,PAL1,2,R1002P
1338.656,0.275,709089,STUDY_ORIENT,n/a,n/a,4,4,FUR,CAT,CAT,FUR,12,"[0, 0, 0]",-999,PAL1,2,R1002P
1339.656,4.0,709589,STUDY_PAIR,n/a,wordpools/wordpool_EN.txt,4,4,FUR,CAT,CAT,FUR,12,"[0, 0, 0]",-999,PAL1,2,R1002P
1344.674,0.275,712097,STUDY_ORIENT,n/a,n/a,5,5,TRASH,PASS,DART,TRASH,12,"[0, 0, 0]",-999,PAL1,2,R1002P
1345.525,4.0,712523,STUDY_PAIR,n/a,wordpools/wordpool_EN.txt,5,5,TRASH,PASS,DART,TRASH,12,"[0, 0, 0]",-999,PAL1,2,R1002P
1350.558,0.275,715039,STUDY_ORIENT,n/a,n/a,6,6,CORD,PASS,RAT,CORD,12,"[0, 0, 0]",-999,PAL1,2,R1002P
1351.459,4.0,715490,STUDY_PAIR,n/a,wordpools/wordpool_EN.txt,6,6,CORD,PASS,RAT,CORD,12,"[0, 0, 0]",-999,PAL1,2,R1002P
1355.46,1.0,717490,START,n/a,n/a,-999,-999,n/a,n/a,n/a,n/a,12,"[-999, -999, -999]",-999,PAL1,2,R1002P
1356.46,0.017,717990,MATH_START,n/a,n/a,-999,-999,n/a,n/a,n/a,n/a,12,"[0, 0, 0]",-999,PAL1,2,R1002P
1356.477,4.534,717999,PROB,4.504,n/a,-999,-999,n/a,n/a,n/a,n/a,12,"[6, 6, 4]",16,PAL1,2,R1002P
1361.011,5.468,720266,PROB,5.434,n/a,-999,-999,n/a,n/a,n/a,n/a,12,"[8, 3, 9]",20,PAL1,2,R1002P
1366.479,6.434,722999,PROB,6.413,n/a,-999,-999,n/a,n/a,n/a,n/a,12,"[3, 5, 9]",17,PAL1,2,R1002P
1372.913,8.428,726216,PROB,8.428,n/a,-999,-999,n/a,n/a,n/a,n/a,12,"[8, 6, 9]",23,PAL1,2,R1002P
1381.341,0.008,730430,STOP,n/a,n/a,-999,-999,n/a,n/a,n/a,n/a,12,"[-999, -999, -999]",-999,PAL1,2,R1002P
1381.349,0.0,730434,TEST_START,n/a,n/a,-999,-999,n/a,n/a,n/a,n/a,12,"[0, 0, 0]",-999,PAL1,2,R1002P
1381.349,0.016,730434,MATH_END,n/a,n/a,-999,-999,n/a,n/a,n/a,n/a,12,"[0, 0, 0]",-999,PAL1,2,R1002P
1381.365,0.275,730442,TEST_ORIENT,n/a,n/a,1,1,BROOM,WORLD,BROOM,WORLD,12,"[0, 0, 0]",-999,PAL1,2,R1002P
1382.165,4.0,730842,TEST_PROBE,n/a,wordpools/wordpool_EN.txt,1,1,BROOM,WORLD,BROOM,WORLD,12,"[0, 0, 0]",-999,PAL1,2,R1002P
1382.166,1.433,730842,REC_START,n/a,n/a,1,-999,n/a,WORLD,n/a,n/a,12,"[0, 0, 0]",-999,PAL1,2,R1002P
1383.599,3.577,731559,REC_EVENT,1.433,n/a,1,1,BROOM,WORLD,BROOM,WORLD,12,"[0, 0, 0]",-999,PAL1,2,R1002P
1387.176,0.024,733347,REC_END,n/a,n/a,1,-999,n/a,n/a,n/a,n/a,12,"[0, 0, 0]",-999,PAL1,2,R1002P
1387.2,0.275,733359,TEST_ORIENT,n/a,n/a,2,2,NOSE,SKI,NOSE,SKI,12,"[0, 0, 0]",-999,PAL1,2,R1002P
1388.183,4.0,733851,TEST_PROBE,n/a,wordpools/wordpool_EN.txt,2,2,NOSE,SKI,NOSE,SKI,12,"[0, 0, 0]",-999,PAL1,2,R1002P
1388.184,1.189,733851,REC_START,n/a,n/a,2,-999,n/a,SKI,n/a,n/a,12,"[0, 0, 0]",-999,PAL1,2,R1002P
1389.373,3.811,734446,REC_EVENT,1.189,n/a,2,2,NOSE,SKI,NOSE,SKI,12,"[0, 0, 0]",-999,PAL1,2,R1002P
1393.184,0.017,736351,REC_END,n/a,n/a,2,-999,n/a,n/a,n/a,n/a,12,"[0, 0, 0]",-999,PAL1,2,R1002P
1393.201,0.275,736360,TEST_ORIENT,n/a,n/a,3,3,STAR,TRAY,STAR,TRAY,12,"[0, 0, 0]",-999,PAL1,2,R1002P
1394.101,4.0,736810,TEST_PROBE,n/a,wordpools/wordpool_EN.txt,3,3,STAR,TRAY,STAR,TRAY,12,"[0, 0, 0]",-999,PAL1,2,R1002P
1394.102,1.326,736810,REC_START,n/a,n/a,3,-999,n/a,TRAY,n/a,n/a,12,"[0, 0, 0]",-999,PAL1,2,R1002P
1395.428,3.69,737473,REC_EVENT,1.326,n/a,3,3,STAR,TRAY,STAR,TRAY,12,"[0, 0, 0]",-999,PAL1,2,R1002P
1399.118,0.017,739318,REC_END,n/a,n/a,3,-999,n/a,n/a,n/a,n/a,12,"[0, 0, 0]",-999,PAL1,2,R1002P
1399.135,0.275,739326,TEST_ORIENT,n/a,n/a,4,4,FUR,CAT,CAT,FUR,12,"[0, 0, 0]",-999,PAL1,2,R1002P
1400.019,0.0,739768,REC_START,n/a,n/a,4,-999,n/a,CAT,n/a,n/a,12,"[0, 0, 0]",-999,PAL1,2,R1002P
1400.019,4.0,739768,TEST_PROBE,n/a,wordpools/wordpool_EN.txt,4,4,FUR,CAT,CAT,FUR,12,"[0, 0, 0]",-999,PAL1,2,R1002P
1402.209,2.827,740863,REC_EVENT,2.19,n/a,4,4,FUR,CAT,CAT,FUR,12,"[0, 0, 0]",-999,PAL1,2,R1002P
1405.036,0.017,742277,REC_END,n/a,n/a,4,-999,n/a,n/a,n/a,n/a,12,"[0, 0, 0]",-999,PAL1,2,R1002P
1405.053,0.275,742285,TEST_ORIENT,n/a,n/a,5,5,TRASH,PASS,DART,TRASH,12,"[0, 0, 0]",-999,PAL1,2,R1002P
1405.869,4.0,742693,TEST_PROBE,n/a,wordpools/wordpool_EN.txt,5,5,TRASH,PASS,DART,TRASH,12,"[0, 0, 0]",-999,PAL1,2,R1002P
1405.869,2.684,742693,REC_START,n/a,n/a,5,-999,n/a,PASS,n/a,n/a,12,"[0, 0, 0]",-999,PAL1,2,R1002P
1408.553,2.333,744035,REC_EVENT,2.684,n/a,5,5,TRASH,PASS,DART,TRASH,12,"[0, 0, 0]",-999,PAL1,2,R1002P
1410.886,0.017,745202,REC_END,n/a,n/a,5,-999,n/a,n/a,n/a,n/a,12,"[0, 0, 0]",-999,PAL1,2,R1002P
1410.903,0.275,745210,TEST_ORIENT,n/a,n/a,6,6,CORD,PASS,RAT,CORD,12,"[0, 0, 0]",-999,PAL1,2,R1002P
1411.82,4.0,745669,TEST_PROBE,n/a,wordpools/wordpool_EN.txt,6,6,CORD,PASS,RAT,CORD,12,"[0, 0, 0]",-999,PAL1,2,R1002P
1411.82,3.629,745669,REC_START,n/a,n/a,6,-999,n/a,PASS,n/a,n/a,12,"[0, 0, 0]",-999,PAL1,2,R1002P
1415.449,1.388,747483,REC_EVENT,3.629,n/a,6,6,CORD,PASS,RAT,CORD,12,"[0, 0, 0]",-999,PAL1,2,R1002P
1416.837,76.015,748177,REC_END,n/a,n/a,6,-999,n/a,n/a,n/a,n/a,12,"[0, 0, 0]",-999,PAL1,2,R1002P
1492.852,10.453,786182,ENCODING_START,n/a,n/a,0,-999,n/a,n/a,n/a,n/a,13,"[0, 0, 0]",-999,PAL1,2,R1002P
1503.305,0.275,791409,STUDY_ORIENT,n/a,n/a,1,3,BRANCH,PASS,TENT,BRANCH,13,"[0, 0, 0]",-999,PAL1,2,R1002P
1504.172,4.0,791842,STUDY_PAIR,n/a,wordpools/wordpool_EN.txt,1,3,BRANCH,PASS,TENT,BRANCH,13,"[0, 0, 0]",-999,PAL1,2,R1002P
1509.19,0.275,794351,STUDY_ORIENT,n/a,n/a,2,6,OAK,PASS,OAK,EEL,13,"[0, 0, 0]",-999,PAL1,2,R1002P
1510.19,4.0,794851,STUDY_PAIR,n/a,wordpools/wordpool_EN.txt,2,6,OAK,PASS,OAK,EEL,13,"[0, 0, 0]",-999,PAL1,2,R1002P
1515.224,0.275,797368,STUDY_ORIENT,n/a,n/a,3,1,PALM,AXE,PALM,AXE,13,"[0, 0, 0]",-999,PAL1,2,R1002P
1516.241,4.0,797876,STUDY_PAIR,n/a,wordpools/wordpool_EN.txt,3,1,PALM,AXE,PALM,AXE,13,"[0, 0, 0]",-999,PAL1,2,R1002P
1521.259,0.275,800385,STUDY_ORIENT,n/a,n/a,4,2,CLOCK,NET,CLOCK,NET,13,"[0, 0, 0]",-999,PAL1,2,R1002P
1522.042,4.0,800777,STUDY_PAIR,n/a,wordpools/wordpool_EN.txt,4,2,CLOCK,NET,CLOCK,NET,13,"[0, 0, 0]",-999,PAL1,2,R1002P
1527.06,0.275,803286,STUDY_ORIENT,n/a,n/a,5,5,PLANE,PASS,PLANE,SHELL,13,"[0, 0, 0]",-999,PAL1,2,R1002P
1527.926,4.0,803718,STUDY_PAIR,n/a,wordpools/wordpool_EN.txt,5,5,PLANE,PASS,PLANE,SHELL,13,"[0, 0, 0]",-999,PAL1,2,R1002P
1532.961,0.275,806236,STUDY_ORIENT,n/a,n/a,6,4,CLOWN,CROWN,CLOWN,CROWN,13,"[0, 0, 0]",-999,PAL1,2,R1002P
1533.844,4.0,806677,STUDY_PAIR,n/a,wordpools/wordpool_EN.txt,6,4,CLOWN,CROWN,CLOWN,CROWN,13,"[0, 0, 0]",-999,PAL1,2,R1002P
1537.862,0.999,808686,START,n/a,n/a,-999,-999,n/a,n/a,n/a,n/a,13,"[-999, -999, -999]",-999,PAL1,2,R1002P
1538.861,0.017,809186,MATH_START,n/a,n/a,-999,-999,n/a,n/a,n/a,n/a,13,"[0, 0, 0]",-999,PAL1,2,R1002P
1538.878,4.285,809194,PROB,4.255,n/a,-999,-999,n/a,n/a,n/a,n/a,13,"[5, 2, 4]",11,PAL1,2,R1002P
1543.163,3.784,811337,PROB,3.761,n/a,-999,-999,n/a,n/a,n/a,n/a,13,"[6, 4, 8]",18,PAL1,2,R1002P
1546.947,4.018,813228,PROB,3.993,n/a,-999,-999,n/a,n/a,n/a,n/a,13,"[6, 9, 9]",24,PAL1,2,R1002P
1550.965,5.301,815237,PROB,5.28,n/a,-999,-999,n/a,n/a,n/a,n/a,13,"[8, 3, 6]",17,PAL1,2,R1002P
1556.266,5.683,817888,PROB,5.683,n/a,-999,-999,n/a,n/a,n/a,n/a,13,"[4, 9, 3]",16,PAL1,2,R1002P
1561.949,0.018,820729,STOP,n/a,n/a,-999,-999,n/a,n/a,n/a,n/a,13,"[-999, -999, -999]",-999,PAL1,2,R1002P
1561.967,0.0,820738,MATH_END,n/a,n/a,-999,-999,n/a,n/a,n/a,n/a,13,"[0, 0, 0]",-999,PAL1,2,R1002P
1561.967,0.016,820738,TEST_START,n/a,n/a,-999,-999,n/a,n/a,n/a,n/a,13,"[0, 0, 0]",-999,PAL1,2,R1002P
1561.983,0.275,820746,TEST_ORIENT,n/a,n/a,3,1,PALM,AXE,PALM,AXE,13,"[0, 0, 0]",-999,PAL1,2,R1002P
1562.883,4.0,821196,TEST_PROBE,n/a,wordpools/wordpool_EN.txt,3,1,PALM,AXE,PALM,AXE,13,"[0, 0, 0]",-999,PAL1,2,R1002P
1562.883,1.269,821196,REC_START,n/a,n/a,3,-999,n/a,AXE,n/a,n/a,13,"[0, 0, 0]",-999,PAL1,2,R1002P
1564.152,3.748,821831,REC_EVENT,1.269,n/a,3,1,PALM,AXE,PALM,AXE,13,"[0, 0, 0]",-999,PAL1,2,R1002P
1567.9,0.017,823704,REC_END,n/a,n/a,3,-999,n/a,n/a,n/a,n/a,13,"[0, 0, 0]",-999,PAL1,2,R1002P
1567.917,0.275,823713,TEST_ORIENT,n/a,n/a,4,2,CLOCK,NET,CLOCK,NET,13,"[0, 0, 0]",-999,PAL1,2,R1002P
1568.75,4.0,824129,TEST_PROBE,n/a,wordpools/wordpool_EN.txt,4,2,CLOCK,NET,CLOCK,NET,13,"[0, 0, 0]",-999,PAL1,2,R1002P
1568.751,2.808,824130,REC_START,n/a,n/a,4,-999,n/a,NET,n/a,n/a,13,"[0, 0, 0]",-999,PAL1,2,R1002P
1571.559,2.202,825534,REC_EVENT,2.808,n/a,4,2,CLOCK,NET,CLOCK,NET,13,"[0, 0, 0]",-999,PAL1,2,R1002P
1573.761,0.007,826635,REC_END,n/a,n/a,4,-999,n/a,n/a,n/a,n/a,13,"[0, 0, 0]",-999,PAL1,2,R1002P
1573.768,0.275,826638,TEST_ORIENT,n/a,n/a,1,3,BRANCH,PASS,TENT,BRANCH,13,"[0, 0, 0]",-999,PAL1,2,R1002P
1574.635,4.0,827072,TEST_PROBE,n/a,wordpools/wordpool_EN.txt,1,3,BRANCH,PASS,TENT,BRANCH,13,"[0, 0, 0]",-999,PAL1,2,R1002P
1574.635,3.161,827072,REC_START,n/a,n/a,1,-999,n/a,PASS,n/a,n/a,13,"[0, 0, 0]",-999,PAL1,2,R1002P
1577.796,1.856,828652,REC_EVENT,3.161,n/a,1,3,BRANCH,PASS,TENT,BRANCH,13,"[0, 0, 0]",-999,PAL1,2,R1002P
1579.652,0.017,829580,REC_END,n/a,n/a,1,-999,n/a,n/a,n/a,n/a,13,"[0, 0, 0]",-999,PAL1,2,R1002P
1579.669,0.275,829589,TEST_ORIENT,n/a,n/a,6,4,CLOWN,CROWN,CLOWN,CROWN,13,"[0, 0, 0]",-999,PAL1,2,R1002P
1580.636,4.0,830072,TEST_PROBE,n/a,wordpools/wordpool_EN.txt,6,4,CLOWN,CROWN,CLOWN,CROWN,13,"[0, 0, 0]",-999,PAL1,2,R1002P
1580.636,1.239,830072,REC_START,n/a,n/a,6,-999,n/a,CROWN,n/a,n/a,13,"[0, 0, 0]",-999,PAL1,2,R1002P
1581.875,3.778,830692,REC_EVENT,1.239,n/a,6,4,CLOWN,CROWN,CLOWN,CROWN,13,"[0, 0, 0]",-999,PAL1,2,R1002P
1585.653,0.017,832580,REC_END,n/a,n/a,6,-999,n/a,n/a,n/a,n/a,13,"[0, 0, 0]",-999,PAL1,2,R1002P
1585.67,0.275,832589,TEST_ORIENT,n/a,n/a,5,5,PLANE,PASS,PLANE,SHELL,13,"[0, 0, 0]",-999,PAL1,2,R1002P
1586.671,4.0,833089,TEST_PROBE,n/a,wordpools/wordpool_EN.txt,5,5,PLANE,PASS,PLANE,SHELL,13,"[0, 0, 0]",-999,PAL1,2,R1002P
1586.671,2.539,833089,REC_START,n/a,n/a,5,-999,n/a,PASS,n/a,n/a,13,"[0, 0, 0]",-999,PAL1,2,R1002P
1589.21,2.478,834359,REC_EVENT,2.539,n/a,5,5,PLANE,PASS,PLANE,SHELL,13,"[0, 0, 0]",-999,PAL1,2,R1002P
1591.688,0.017,835598,REC_END,n/a,n/a,5,-999,n/a,n/a,n/a,n/a,13,"[0, 0, 0]",-999,PAL1,2,R1002P
1591.705,0.275,835606,TEST_ORIENT,n/a,n/a,2,6,OAK,PASS,OAK,EEL,13,"[0, 0, 0]",-999,PAL1,2,R1002P
1592.622,4.0,836065,TEST_PROBE,n/a,wordpools/wordpool_EN.txt,2,6,OAK,PASS,OAK,EEL,13,"[0, 0, 0]",-999,PAL1,2,R1002P
1592.622,4.062,836065,REC_START,n/a,n/a,2,-999,n/a,PASS,n/a,n/a,13,"[0, 0, 0]",-999,PAL1,2,R1002P
1596.684,0.955,838096,REC_EVENT,4.062,n/a,2,6,OAK,PASS,OAK,EEL,13,"[0, 0, 0]",-999,PAL1,2,R1002P
1597.639,21.221,838573,REC_END,n/a,n/a,2,-999,n/a,n/a,n/a,n/a,13,"[0, 0, 0]",-999,PAL1,2,R1002P
1618.86,10.453,849183,ENCODING_START,n/a,n/a,0,-999,n/a,n/a,n/a,n/a,14,"[0, 0, 0]",-999,PAL1,2,R1002P
1629.313,0.275,854409,STUDY_ORIENT,n/a,n/a,1,1,SUIT,HOOF,SUIT,HOOF,14,"[0, 0, 0]",-999,PAL1,2,R1002P
1630.313,4.0,854909,STUDY_PAIR,n/a,wordpools/wordpool_EN.txt,1,1,SUIT,HOOF,SUIT,HOOF,14,"[0, 0, 0]",-999,PAL1,2,R1002P
1635.331,0.275,857418,STUDY_ORIENT,n/a,n/a,2,4,CART,PASS,CART,BEAK,14,"[0, 0, 0]",-999,PAL1,2,R1002P
1636.114,4.0,857810,STUDY_PAIR,n/a,wordpools/wordpool_EN.txt,2,4,CART,PASS,CART,BEAK,14,"[0, 0, 0]",-999,PAL1,2,R1002P
1641.132,0.275,860318,STUDY_ORIENT,n/a,n/a,3,3,OAR,PASS,OAR,SWAMP,14,"[0, 0, 0]",-999,PAL1,2,R1002P
1641.914,4.0,860709,STUDY_PAIR,n/a,wordpools/wordpool_EN.txt,3,3,OAR,PASS,OAR,SWAMP,14,"[0, 0, 0]",-999,PAL1,2,R1002P
1646.932,0.275,863218,STUDY_ORIENT,n/a,n/a,4,6,CHAIR,PASS,SWORD,CHAIR,14,"[0, 0, 0]",-999,PAL1,2,R1002P
1647.766,4.0,863635,STUDY_PAIR,n/a,wordpools/wordpool_EN.txt,4,6,CHAIR,PASS,SWORD,CHAIR,14,"[0, 0, 0]",-999,PAL1,2,R1002P
1652.8,0.275,866152,STUDY_ORIENT,n/a,n/a,5,5,COIN,PASS,COIN,TOE,14,"[0, 0, 0]",-999,PAL1,2,R1002P
1653.734,4.0,866619,STUDY_PAIR,n/a,wordpools/wordpool_EN.txt,5,5,COIN,PASS,COIN,TOE,14,"[0, 0, 0]",-999,PAL1,2,R1002P
1658.768,0.275,869136,STUDY_ORIENT,n/a,n/a,6,2,WHALE,SOAP,WHALE,SOAP,14,"[0, 0, 0]",-999,PAL1,2,R1002P
1659.651,4.0,869577,STUDY_PAIR,n/a,wordpools/wordpool_EN.txt,6,2,WHALE,SOAP,WHALE,SOAP,14,"[0, 0, 0]",-999,PAL1,2,R1002P
1663.652,1.0,871578,START,n/a,n/a,-999,-999,n/a,n/a,n/a,n/a,14,"[-999, -999, -999]",-999,PAL1,2,R1002P
1664.652,0.017,872078,MATH_START,n/a,n/a,-999,-999,n/a,n/a,n/a,n/a,14,"[0, 0, 0]",-999,PAL1,2,R1002P
1664.669,4.901,872086,PROB,4.871,n/a,-999,-999,n/a,n/a,n/a,n/a,14,"[4, 7, 9]",20,PAL1,2,R1002P
1669.57,3.752,874537,PROB,3.731,n/a,-999,-999,n/a,n/a,n/a,n/a,14,"[3, 2, 5]",10,PAL1,2,R1002P
1673.322,4.867,876413,PROB,4.843,n/a,-999,-999,n/a,n/a,n/a,n/a,14,"[1, 8, 3]",12,PAL1,2,R1002P
1678.189,3.667,878846,PROB,3.639,n/a,-999,-999,n/a,n/a,n/a,n/a,14,"[7, 3, 2]",12,PAL1,2,R1002P
1681.856,3.836,880679,PROB,3.836,n/a,-999,-999,n/a,n/a,n/a,n/a,14,"[1, 7, 2]",10,PAL1,2,R1002P
1685.692,0.014,882597,STOP,n/a,n/a,-999,-999,n/a,n/a,n/a,n/a,14,"[-999, -999, -999]",-999,PAL1,2,R1002P
1685.706,0.0,882604,MATH_END,n/a,n/a,-999,-999,n/a,n/a,n/a,n/a,14,"[0, 0, 0]",-999,PAL1,2,R1002P
1685.706,0.017,882604,TEST_START,n/a,n/a,-999,-999,n/a,n/a,n/a,n/a,14,"[0, 0, 0]",-999,PAL1,2,R1002P
1685.723,0.275,882613,TEST_ORIENT,n/a,n/a,1,1,SUIT,HOOF,SUIT,HOOF,14,"[0, 0, 0]",-999,PAL1,2,R1002P
1686.54,4.0,883021,TEST_PROBE,n/a,wordpools/wordpool_EN.txt,1,1,SUIT,HOOF,SUIT,HOOF,14,"[0, 0, 0]",-999,PAL1,2,R1002P
1686.541,2.038,883022,REC_START,n/a,n/a,1,-999,n/a,HOOF,n/a,n/a,14,"[0, 0, 0]",-999,PAL1,2,R1002P
1688.579,2.987,884041,REC_EVENT,2.038,n/a,1,1,SUIT,HOOF,SUIT,HOOF,14,"[0, 0, 0]",-999,PAL1,2,R1002P
1691.566,0.008,885534,REC_END,n/a,n/a,1,-999,n/a,n/a,n/a,n/a,14,"[0, 0, 0]",-999,PAL1,2,R1002P
1691.574,0.275,885538,TEST_ORIENT,n/a,n/a,6,2,WHALE,SOAP,WHALE,SOAP,14,"[0, 0, 0]",-999,PAL1,2,R1002P
1692.425,4.0,885964,TEST_PROBE,n/a,wordpools/wordpool_EN.txt,6,2,WHALE,SOAP,WHALE,SOAP,14,"[0, 0, 0]",-999,PAL1,2,R1002P
1692.426,1.068,885964,REC_START,n/a,n/a,6,-999,n/a,SOAP,n/a,n/a,14,"[0, 0, 0]",-999,PAL1,2,R1002P
1693.494,3.932,886498,REC_EVENT,1.068,n/a,6,2,WHALE,SOAP,WHALE,SOAP,14,"[0, 0, 0]",-999,PAL1,2,R1002P
1697.426,0.017,888464,REC_END,n/a,n/a,6,-999,n/a,n/a,n/a,n/a,14,"[0, 0, 0]",-999,PAL1,2,R1002P
1697.443,0.275,888472,TEST_ORIENT,n/a,n/a,3,3,OAR,PASS,OAR,SWAMP,14,"[0, 0, 0]",-999,PAL1,2,R1002P
1698.36,4.0,888931,TEST_PROBE,n/a,wordpools/wordpool_EN.txt,3,3,OAR,PASS,OAR,SWAMP,14,"[0, 0, 0]",-999,PAL1,2,R1002P
1698.36,4.114,888931,REC_START,n/a,n/a,3,-999,n/a,PASS,n/a,n/a,14,"[0, 0, 0]",-999,PAL1,2,R1002P
1702.474,0.903,890988,REC_EVENT,4.114,n/a,3,3,OAR,PASS,OAR,SWAMP,14,"[0, 0, 0]",-999,PAL1,2,R1002P
1703.377,0.017,891439,REC_END,n/a,n/a,3,-999,n/a,n/a,n/a,n/a,14,"[0, 0, 0]",-999,PAL1,2,R1002P
1703.394,0.275,891448,TEST_ORIENT,n/a,n/a,2,4,CART,PASS,CART,BEAK,14,"[0, 0, 0]",-999,PAL1,2,R1002P
1704.361,4.0,891931,TEST_PROBE,n/a,wordpools/wordpool_EN.txt,2,4,CART,PASS,CART,BEAK,14,"[0, 0, 0]",-999,PAL1,2,R1002P
1704.362,2.72,891932,REC_START,n/a,n/a,2,-999,n/a,PASS,n/a,n/a,14,"[0, 0, 0]",-999,PAL1,2,R1002P
1707.082,2.296,893292,REC_EVENT,2.72,n/a,2,4,CART,PASS,CART,BEAK,14,"[0, 0, 0]",-999,PAL1,2,R1002P
1709.378,0.017,894440,REC_END,n/a,n/a,2,-999,n/a,n/a,n/a,n/a,14,"[0, 0, 0]",-999,PAL1,2,R1002P
1709.395,0.275,894448,TEST_ORIENT,n/a,n/a,5,5,COIN,PASS,COIN,TOE,14,"[0, 0, 0]",-999,PAL1,2,R1002P
1710.379,4.0,894940,TEST_PROBE,n/a,wordpools/wordpool_EN.txt,5,5,COIN,PASS,COIN,TOE,14,"[0, 0, 0]",-999,PAL1,2,R1002P
1710.379,2.328,894940,REC_START,n/a,n/a,5,-999,n/a,PASS,n/a,n/a,14,"[0, 0, 0]",-999,PAL1,2,R1002P
1712.707,2.689,896104,REC_EVENT,2.328,n/a,5,5,COIN,PASS,COIN,TOE,14,"[0, 0, 0]",-999,PAL1,2,R1002P
1715.396,0.017,897448,REC_END,n/a,n/a,5,-999,n/a,n/a,n/a,n/a,14,"[0, 0, 0]",-999,PAL1,2,R1002P
1715.413,0.275,897457,TEST_ORIENT,n/a,n/a,4,6,CHAIR,PASS,SWORD,CHAIR,14,"[0, 0, 0]",-999,PAL1,2,R1002P
1716.296,4.0,897898,TEST_PROBE,n/a,wordpools/wordpool_EN.txt,4,6,CHAIR,PASS,SWORD,CHAIR,14,"[0, 0, 0]",-999,PAL1,2,R1002P
1716.297,2.87,897899,REC_START,n/a,n/a,4,-999,n/a,PASS,n/a,n/a,14,"[0, 0, 0]",-999,PAL1,2,R1002P
1719.167,2.13,899334,REC_EVENT,2.87,n/a,4,6,CHAIR,PASS,SWORD,CHAIR,14,"[0, 0, 0]",-999,PAL1,2,R1002P
1721.297,1.756,900399,REC_END,n/a,n/a,4,-999,n/a,n/a,n/a,n/a,14,"[0, 0, 0]",-999,PAL1,2,R1002P
1723.053,10.447,901277,ENCODING_START,n/a,n/a,0,-999,n/a,n/a,n/a,n/a,15,"[0, 0, 0]",-999,PAL1,2,R1002P
1733.5,0.275,906500,STUDY_ORIENT,n/a,n/a,1,3,FLOOR,PASS,SPARK,FLOOR,15,"[0, 0, 0]",-999,PAL1,2,R1002P
1734.333,4.0,906916,STUDY_PAIR,n/a,wordpools/wordpool_EN.txt,1,3,FLOOR,PASS,SPARK,FLOOR,15,"[0, 0, 0]",-999,PAL1,2,R1002P
1739.351,0.275,909425,STUDY_ORIENT,n/a,n/a,2,4,ELF,SEED,SEED,ELF,15,"[0, 0, 0]",-999,PAL1,2,R1002P
1740.151,4.0,909825,STUDY_PAIR,n/a,wordpools/wordpool_EN.txt,2,4,ELF,SEED,SEED,ELF,15,"[0, 0, 0]",-999,PAL1,2,R1002P
1745.169,0.275,912334,STUDY_ORIENT,n/a,n/a,3,5,ROPE,JEEP,JEEP,ROPE,15,"[0, 0, 0]",-999,PAL1,2,R1002P
1746.052,4.0,912776,STUDY_PAIR,n/a,wordpools/wordpool_EN.txt,3,5,ROPE,JEEP,JEEP,ROPE,15,"[0, 0, 0]",-999,PAL1,2,R1002P
1751.07,0.275,915284,STUDY_ORIENT,n/a,n/a,4,6,CORN,SEED,CORN,PRINCE,15,"[0, 0, 0]",-999,PAL1,2,R1002P
1752.003,4.0,915751,STUDY_PAIR,n/a,wordpools/wordpool_EN.txt,4,6,CORN,SEED,CORN,PRINCE,15,"[0, 0, 0]",-999,PAL1,2,R1002P
1757.021,0.275,918260,STUDY_ORIENT,n/a,n/a,5,1,COUCH,HAND,HAND,COUCH,15,"[0, 0, 0]",-999,PAL1,2,R1002P
1757.803,4.0,918651,STUDY_PAIR,n/a,wordpools/wordpool_EN.txt,5,1,COUCH,HAND,HAND,COUCH,15,"[0, 0, 0]",-999,PAL1,2,R1002P
1762.821,0.275,921160,STUDY_ORIENT,n/a,n/a,6,2,SALT,POND,POND,SALT,15,"[0, 0, 0]",-999,PAL1,2,R1002P
1763.805,4.0,921652,STUDY_PAIR,n/a,wordpools/wordpool_EN.txt,6,2,SALT,POND,POND,SALT,15,"[0, 0, 0]",-999,PAL1,2,R1002P
1767.823,0.999,923661,START,n/a,n/a,-999,-999,n/a,n/a,n/a,n/a,15,"[-999, -999, -999]",-999,PAL1,2,R1002P
1768.822,0.017,924160,MATH_START,n/a,n/a,-999,-999,n/a,n/a,n/a,n/a,15,"[0, 0, 0]",-999,PAL1,2,R1002P
1768.839,4.901,924168,PROB,4.877,n/a,-999,-999,n/a,n/a,n/a,n/a,15,"[7, 4, 3]",14,PAL1,2,R1002P
1773.74,3.618,926619,PROB,3.593,n/a,-999,-999,n/a,n/a,n/a,n/a,15,"[3, 7, 6]",16,PAL1,2,R1002P
1777.358,4.3,928428,PROB,4.279,n/a,-999,-999,n/a,n/a,n/a,n/a,15,"[2, 6, 8]",16,PAL1,2,R1002P
1781.658,4.452,930578,PROB,4.427,n/a,-999,-999,n/a,n/a,n/a,n/a,15,"[8, 3, 4]",15,PAL1,2,R1002P
1786.11,3.967,932804,PROB,3.967,n/a,-999,-999,n/a,n/a,n/a,n/a,15,"[1, 6, 3]",10,PAL1,2,R1002P
1790.077,0.017,934787,STOP,n/a,n/a,-999,-999,n/a,n/a,n/a,n/a,15,"[-999, -999, -999]",-999,PAL1,2,R1002P
1790.094,0.0,934795,MATH_END,n/a,n/a,-999,-999,n/a,n/a,n/a,n/a,15,"[0, 0, 0]",-999,PAL1,2,R1002P
1790.094,0.017,934795,TEST_START,n/a,n/a,-999,-999,n/a,n/a,n/a,n/a,15,"[0, 0, 0]",-999,PAL1,2,R1002P
1790.111,0.275,934804,TEST_ORIENT,n/a,n/a,5,1,COUCH,HAND,HAND,COUCH,15,"[0, 0, 0]",-999,PAL1,2,R1002P
1790.943,4.0,935220,TEST_PROBE,n/a,wordpools/wordpool_EN.txt,5,1,COUCH,HAND,HAND,COUCH,15,"[0, 0, 0]",-999,PAL1,2,R1002P
1790.945,1.24,935221,REC_START,n/a,n/a,5,-999,n/a,HAND,n/a,n/a,15,"[0, 0, 0]",-999,PAL1,2,R1002P
1792.185,3.771,935841,REC_EVENT,1.24,n/a,5,1,COUCH,HAND,HAND,COUCH,15,"[0, 0, 0]",-999,PAL1,2,R1002P
1795.956,0.023,937726,REC_END,n/a,n/a,5,-999,n/a,n/a,n/a,n/a,15,"[0, 0, 0]",-999,PAL1,2,R1002P
1795.979,0.275,937738,TEST_ORIENT,n/a,n/a,6,2,SALT,POND,POND,SALT,15,"[0, 0, 0]",-999,PAL1,2,R1002P
1796.911,4.0,938204,TEST_PROBE,n/a,wordpools/wordpool_EN.txt,6,2,SALT,POND,POND,SALT,15,"[0, 0, 0]",-999,PAL1,2,R1002P
1796.912,1.066,938204,REC_START,n/a,n/a,6,-999,n/a,POND,n/a,n/a,15,"[0, 0, 0]",-999,PAL1,2,R1002P
1797.978,3.95,938737,REC_EVENT,1.066,n/a,6,2,SALT,POND,POND,SALT,15,"[0, 0, 0]",-999,PAL1,2,R1002P
1801.928,0.018,940712,REC_END,n/a,n/a,6,-999,n/a,n/a,n/a,n/a,15,"[0, 0, 0]",-999,PAL1,2,R1002P
1801.946,0.275,940721,TEST_ORIENT,n/a,n/a,1,3,FLOOR,PASS,SPARK,FLOOR,15,"[0, 0, 0]",-999,PAL1,2,R1002P
1802.98,0.0,941238,REC_START,n/a,n/a,1,-999,n/a,PASS,n/a,n/a,15,"[0, 0, 0]",-999,PAL1,2,R1002P
1802.98,4.0,941238,TEST_PROBE,n/a,wordpools/wordpool_EN.txt,1,3,FLOOR,PASS,SPARK,FLOOR,15,"[0, 0, 0]",-999,PAL1,2,R1002P
1806.225,1.772,942860,REC_EVENT,3.245,n/a,1,3,FLOOR,PASS,SPARK,FLOOR,15,"[0, 0, 0]",-999,PAL1,2,R1002P
1807.997,0.017,943746,REC_END,n/a,n/a,1,-999,n/a,n/a,n/a,n/a,15,"[0, 0, 0]",-999,PAL1,2,R1002P
1808.014,0.275,943755,TEST_ORIENT,n/a,n/a,2,4,ELF,SEED,SEED,ELF,15,"[0, 0, 0]",-999,PAL1,2,R1002P
1809.064,4.0,944280,TEST_PROBE,n/a,wordpools/wordpool_EN.txt,2,4,ELF,SEED,SEED,ELF,15,"[0, 0, 0]",-999,PAL1,2,R1002P
1809.065,1.17,944280,REC_START,n/a,n/a,2,-999,n/a,SEED,n/a,n/a,15,"[0, 0, 0]",-999,PAL1,2,R1002P
1810.235,3.84,944865,REC_EVENT,1.17,n/a,2,4,ELF,SEED,SEED,ELF,15,"[0, 0, 0]",-999,PAL1,2,R1002P
1814.075,0.024,946785,REC_END,n/a,n/a,2,-999,n/a,n/a,n/a,n/a,15,"[0, 0, 0]",-999,PAL1,2,R1002P
1814.099,0.275,946797,TEST_ORIENT,n/a,n/a,3,5,ROPE,JEEP,JEEP,ROPE,15,"[0, 0, 0]",-999,PAL1,2,R1002P
1815.016,0.0,947256,REC_START,n/a,n/a,3,-999,n/a,JEEP,n/a,n/a,15,"[0, 0, 0]",-999,PAL1,2,R1002P
1815.016,4.0,947256,TEST_PROBE,n/a,wordpools/wordpool_EN.txt,3,5,ROPE,JEEP,JEEP,ROPE,15,"[0, 0, 0]",-999,PAL1,2,R1002P
1816.832,3.201,948164,REC_EVENT,1.816,n/a,3,5,ROPE,JEEP,JEEP,ROPE,15,"[0, 0, 0]",-999,PAL1,2,R1002P
1820.033,0.017,949764,REC_END,n/a,n/a,3,-999,n/a,n/a,n/a,n/a,15,"[0, 0, 0]",-999,PAL1,2,R1002P
1820.05,0.275,949773,TEST_ORIENT,n/a,n/a,4,6,CORN,SEED,CORN,PRINCE,15,"[0, 0, 0]",-999,PAL1,2,R1002P
1821.05,4.0,950273,TEST_PROBE,n/a,wordpools/wordpool_EN.txt,4,6,CORN,SEED,CORN,PRINCE,15,"[0, 0, 0]",-999,PAL1,2,R1002P
1821.051,3.12,950273,REC_START,n/a,n/a,4,-999,n/a,SEED,n/a,n/a,15,"[0, 0, 0]",-999,PAL1,2,R1002P
1824.171,1.0,951833,REC_EVENT,3.12,n/a,4,6,CORN,SEED,CORN,PRINCE,15,"[0, 0, 0]",-999,PAL1,2,R1002P
1825.171,0.908,952333,REC_EVENT,4.12,n/a,4,6,CORN,<>,CORN,PRINCE,15,"[0, 0, 0]",-999,PAL1,2,R1002P
1826.079,3.294,952787,REC_END,n/a,n/a,4,-999,n/a,n/a,n/a,n/a,15,"[0, 0, 0]",-999,PAL1,2,R1002P
1829.373,10.446,954434,ENCODING_START,n/a,n/a,0,-999,n/a,n/a,n/a,n/a,16,"[0, 0, 0]",-999,PAL1,2,R1002P
1839.819,0.275,959657,STUDY_ORIENT,n/a,n/a,1,5,NAIL,PASS,BEAR,NAIL,16,"[0, 0, 0]",-999,PAL1,2,R1002P
1840.636,4.0,960065,STUDY_PAIR,n/a,wordpools/wordpool_EN.txt,1,5,NAIL,PASS,BEAR,NAIL,16,"[0, 0, 0]",-999,PAL1,2,R1002P
1845.654,0.275,962574,STUDY_ORIENT,n/a,n/a,2,4,CONE,SHIELD,CONE,SHIELD,16,"[0, 0, 0]",-999,PAL1,2,R1002P
1846.671,4.0,963082,STUDY_PAIR,n/a,wordpools/wordpool_EN.txt,2,4,CONE,SHIELD,CONE,SHIELD,16,"[0, 0, 0]",-999,PAL1,2,R1002P
1851.705,0.275,965599,STUDY_ORIENT,n/a,n/a,3,3,FOX,PASS,SINK,FOX,16,"[0, 0, 0]",-999,PAL1,2,R1002P
1852.523,4.0,966008,STUDY_PAIR,n/a,wordpools/wordpool_EN.txt,3,3,FOX,PASS,SINK,FOX,16,"[0, 0, 0]",-999,PAL1,2,R1002P
1857.556,0.275,968525,STUDY_ORIENT,n/a,n/a,4,6,FLEA,PASS,FLEA,CANE,16,"[0, 0, 0]",-999,PAL1,2,R1002P
1858.507,4.0,969000,STUDY_PAIR,n/a,wordpools/wordpool_EN.txt,4,6,FLEA,PASS,FLEA,CANE,16,"[0, 0, 0]",-999,PAL1,2,R1002P
1863.525,0.275,971509,STUDY_ORIENT,n/a,n/a,5,1,NEST,PASS,NEST,PANTS,16,"[0, 0, 0]",-999,PAL1,2,R1002P
1864.408,4.0,971950,STUDY_PAIR,n/a,wordpools/wordpool_EN.txt,5,1,NEST,PASS,NEST,PANTS,16,"[0, 0, 0]",-999,PAL1,2,R1002P
1869.443,0.275,974468,STUDY_ORIENT,n/a,n/a,6,2,JUDGE,PASS,JUDGE,FROG,16,"[0, 0, 0]",-999,PAL1,2,R1002P
1870.46,4.0,974976,STUDY_PAIR,n/a,wordpools/wordpool_EN.txt,6,2,JUDGE,PASS,JUDGE,FROG,16,"[0, 0, 0]",-999,PAL1,2,R1002P
1874.478,0.999,976985,START,n/a,n/a,-999,-999,n/a,n/a,n/a,n/a,16,"[-999, -999, -999]",-999,PAL1,2,R1002P
1875.477,0.017,977485,MATH_START,n/a,n/a,-999,-999,n/a,n/a,n/a,n/a,16,"[0, 0, 0]",-999,PAL1,2,R1002P
1875.494,5.484,977493,PROB,5.463,n/a,-999,-999,n/a,n/a,n/a,n/a,16,"[3, 4, 8]",15,PAL1,2,R1002P
1880.978,3.034,980235,PROB,3.011,n/a,-999,-999,n/a,n/a,n/a,n/a,16,"[2, 1, 9]",12,PAL1,2,R1002P
1884.012,4.418,981752,PROB,4.385,n/a,-999,-999,n/a,n/a,n/a,n/a,16,"[9, 6, 3]",18,PAL1,2,R1002P
1888.43,5.4,983961,PROB,5.366,n/a,-999,-999,n/a,n/a,n/a,n/a,16,"[5, 9, 7]",21,PAL1,2,R1002P
1893.83,5.167,986661,PROB,5.167,n/a,-999,-999,n/a,n/a,n/a,n/a,16,"[6, 9, 8]",23,PAL1,2,R1002P
1898.997,0.018,989244,STOP,n/a,n/a,-999,-999,n/a,n/a,n/a,n/a,16,"[-999, -999, -999]",-999,PAL1,2,R1002P
1899.015,0.0,989253,MATH_END,n/a,n/a,-999,-999,n/a,n/a,n/a,n/a,16,"[0, 0, 0]",-999,PAL1,2,R1002P
1899.015,0.017,989253,TEST_START,n/a,n/a,-999,-999,n/a,n/a,n/a,n/a,16,"[0, 0, 0]",-999,PAL1,2,R1002P
1899.032,0.275,989261,TEST_ORIENT,n/a,n/a,5,1,NEST,PASS,NEST,PANTS,16,"[0, 0, 0]",-999,PAL1,2,R1002P
1899.999,4.0,989745,TEST_PROBE,n/a,wordpools/wordpool_EN.txt,5,1,NEST,PASS,NEST,PANTS,16,"[0, 0, 0]",-999,PAL1,2,R1002P
1899.999,3.787,989745,REC_START,n/a,n/a,5,-999,n/a,PASS,n/a,n/a,16,"[0, 0, 0]",-999,PAL1,2,R1002P
1903.786,1.23,991638,REC_EVENT,3.787,n/a,5,1,NEST,PASS,NEST,PANTS,16,"[0, 0, 0]",-999,PAL1,2,R1002P
1905.016,0.017,992253,REC_END,n/a,n/a,5,-999,n/a,n/a,n/a,n/a,16,"[0, 0, 0]",-999,PAL1,2,R1002P
1905.033,0.275,992262,TEST_ORIENT,n/a,n/a,6,2,JUDGE,PASS,JUDGE,FROG,16,"[0, 0, 0]",-999,PAL1,2,R1002P
1906.0,4.0,992745,TEST_PROBE,n/a,wordpools/wordpool_EN.txt,6,2,JUDGE,PASS,JUDGE,FROG,16,"[0, 0, 0]",-999,PAL1,2,R1002P
1906.0,4.086,992745,REC_START,n/a,n/a,6,-999,n/a,PASS,n/a,n/a,16,"[0, 0, 0]",-999,PAL1,2,R1002P
1910.086,0.942,994788,REC_EVENT,4.086,n/a,6,2,JUDGE,PASS,JUDGE,FROG,16,"[0, 0, 0]",-999,PAL1,2,R1002P
1911.028,0.023,995259,REC_END,n/a,n/a,6,-999,n/a,n/a,n/a,n/a,16,"[0, 0, 0]",-999,PAL1,2,R1002P
1911.051,0.275,995271,TEST_ORIENT,n/a,n/a,3,3,FOX,PASS,SINK,FOX,16,"[0, 0, 0]",-999,PAL1,2,R1002P
1911.917,0.0,995704,REC_START,n/a,n/a,3,-999,n/a,PASS,n/a,n/a,16,"[0, 0, 0]",-999,PAL1,2,R1002P
1911.917,4.0,995704,TEST_PROBE,n/a,wordpools/wordpool_EN.txt,3,3,FOX,PASS,SINK,FOX,16,"[0, 0, 0]",-999,PAL1,2,R1002P
1915.981,0.953,997735,REC_EVENT,4.064,n/a,3,3,FOX,PASS,SINK,FOX,16,"[0, 0, 0]",-999,PAL1,2,R1002P
1916.934,0.018,998212,REC_END,n/a,n/a,3,-999,n/a,n/a,n/a,n/a,16,"[0, 0, 0]",-999,PAL1,2,R1002P
1916.952,0.275,998221,TEST_ORIENT,n/a,n/a,2,4,CONE,SHIELD,CONE,SHIELD,16,"[0, 0, 0]",-999,PAL1,2,R1002P
1917.918,4.0,998704,TEST_PROBE,n/a,wordpools/wordpool_EN.txt,2,4,CONE,SHIELD,CONE,SHIELD,16,"[0, 0, 0]",-999,PAL1,2,R1002P
1917.918,1.404,998704,REC_START,n/a,n/a,2,-999,n/a,SHIELD,n/a,n/a,16,"[0, 0, 0]",-999,PAL1,2,R1002P
1919.322,3.613,999406,REC_EVENT,1.404,n/a,2,4,CONE,SHIELD,CONE,SHIELD,16,"[0, 0, 0]",-999,PAL1,2,R1002P
1922.935,0.018,1001212,REC_END,n/a,n/a,2,-999,n/a,n/a,n/a,n/a,16,"[0, 0, 0]",-999,PAL1,2,R1002P
1922.953,0.275,1001221,TEST_ORIENT,n/a,n/a,1,5,NAIL,PASS,BEAR,NAIL,16,"[0, 0, 0]",-999,PAL1,2,R1002P
1923.97,0.0,1001730,REC_START,n/a,n/a,1,-999,n/a,PASS,n/a,n/a,16,"[0, 0, 0]",-999,PAL1,2,R1002P
1923.97,4.0,1001730,TEST_PROBE,n/a,wordpools/wordpool_EN.txt,1,5,NAIL,PASS,BEAR,NAIL,16,"[0, 0, 0]",-999,PAL1,2,R1002P
1927.748,1.239,1003619,REC_EVENT,3.778,n/a,1,5,NAIL,PASS,BEAR,NAIL,16,"[0, 0, 0]",-999,PAL1,2,R1002P
1928.987,0.017,1004238,REC_END,n/a,n/a,1,-999,n/a,n/a,n/a,n/a,16,"[0, 0, 0]",-999,PAL1,2,R1002P
1929.004,0.275,1004247,TEST_ORIENT,n/a,n/a,4,6,FLEA,PASS,FLEA,CANE,16,"[0, 0, 0]",-999,PAL1,2,R1002P
1929.954,4.0,1004722,TEST_PROBE,n/a,wordpools/wordpool_EN.txt,4,6,FLEA,PASS,FLEA,CANE,16,"[0, 0, 0]",-999,PAL1,2,R1002P
1929.955,4.674,1004722,REC_START,n/a,n/a,4,-999,n/a,PASS,n/a,n/a,16,"[0, 0, 0]",-999,PAL1,2,R1002P
1934.629,0.337,1007059,REC_EVENT,4.674,n/a,4,6,FLEA,PASS,FLEA,CANE,16,"[0, 0, 0]",-999,PAL1,2,R1002P
1934.966,2.127,1007227,REC_END,n/a,n/a,4,-999,n/a,n/a,n/a,n/a,16,"[0, 0, 0]",-999,PAL1,2,R1002P
1937.093,10.447,1008291,ENCODING_START,n/a,n/a,0,-999,n/a,n/a,n/a,n/a,17,"[0, 0, 0]",-999,PAL1,2,R1002P
1947.54,0.275,1013514,STUDY_ORIENT,n/a,n/a,1,3,CLOUD,BOMB,BOMB,CLOUD,17,"[0, 0, 0]",-999,PAL1,2,R1002P
1948.325,4.0,1013907,STUDY_PAIR,n/a,wordpools/wordpool_EN.txt,1,3,CLOUD,BOMB,BOMB,CLOUD,17,"[0, 0, 0]",-999,PAL1,2,R1002P
1953.359,0.275,1016423,STUDY_ORIENT,n/a,n/a,2,6,LAWN,EGG,EGG,LAWN,17,"[0, 0, 0]",-999,PAL1,2,R1002P
1954.376,4.0,1016932,STUDY_PAIR,n/a,wordpools/wordpool_EN.txt,2,6,LAWN,EGG,EGG,LAWN,17,"[0, 0, 0]",-999,PAL1,2,R1002P
1959.41,0.275,1019449,STUDY_ORIENT,n/a,n/a,3,1,MOUTH,BOWL,BOWL,MOUTH,17,"[0, 0, 0]",-999,PAL1,2,R1002P
1960.26,4.0,1019874,STUDY_PAIR,n/a,wordpools/wordpool_EN.txt,3,1,MOUTH,BOWL,BOWL,MOUTH,17,"[0, 0, 0]",-999,PAL1,2,R1002P
1965.278,0.275,1022383,STUDY_ORIENT,n/a,n/a,4,2,MAT,MULE,MULE,MAT,17,"[0, 0, 0]",-999,PAL1,2,R1002P
1966.094,4.0,1022791,STUDY_PAIR,n/a,wordpools/wordpool_EN.txt,4,2,MAT,MULE,MULE,MAT,17,"[0, 0, 0]",-999,PAL1,2,R1002P
1971.096,0.275,1025292,STUDY_ORIENT,n/a,n/a,5,5,BALL,PASS,EAR,BALL,17,"[0, 0, 0]",-999,PAL1,2,R1002P
1972.079,4.0,1025783,STUDY_PAIR,n/a,wordpools/wordpool_EN.txt,5,5,BALL,PASS,EAR,BALL,17,"[0, 0, 0]",-999,PAL1,2,R1002P
1977.097,0.275,1028292,STUDY_ORIENT,n/a,n/a,6,4,PEN,TIE,PEN,TIE,17,"[0, 0, 0]",-999,PAL1,2,R1002P
1978.03,4.0,1028758,STUDY_PAIR,n/a,wordpools/wordpool_EN.txt,6,4,PEN,TIE,PEN,TIE,17,"[0, 0, 0]",-999,PAL1,2,R1002P
1982.031,1.0,1030759,START,n/a,n/a,-999,-999,n/a,n/a,n/a,n/a,17,"[-999, -999, -999]",-999,PAL1,2,R1002P
1983.031,0.017,1031259,MATH_START,n/a,n/a,-999,-999,n/a,n/a,n/a,n/a,17,"[0, 0, 0]",-999,PAL1,2,R1002P
1983.048,5.301,1031267,PROB,5.269,n/a,-999,-999,n/a,n/a,n/a,n/a,17,"[7, 1, 6]",14,PAL1,2,R1002P
1988.349,5.584,1033918,PROB,5.559,n/a,-999,-999,n/a,n/a,n/a,n/a,17,"[3, 8, 9]",20,PAL1,2,R1002P
1993.933,3.284,1036709,PROB,3.264,n/a,-999,-999,n/a,n/a,n/a,n/a,17,"[7, 3, 2]",12,PAL1,2,R1002P
1997.217,5.036,1038351,PROB,5.036,n/a,-999,-999,n/a,n/a,n/a,n/a,17,"[5, 8, 6]",19,PAL1,2,R1002P
2002.253,0.015,1040869,STOP,n/a,n/a,-999,-999,n/a,n/a,n/a,n/a,17,"[-999, -999, -999]",-999,PAL1,2,R1002P
2002.268,0.0,1040877,MATH_END,n/a,n/a,-999,-999,n/a,n/a,n/a,n/a,17,"[0, 0, 0]",-999,PAL1,2,R1002P
2002.268,0.017,1040877,TEST_START,n/a,n/a,-999,-999,n/a,n/a,n/a,n/a,17,"[0, 0, 0]",-999,PAL1,2,R1002P
2002.285,0.275,1040885,TEST_ORIENT,n/a,n/a,3,1,MOUTH,BOWL,BOWL,MOUTH,17,"[0, 0, 0]",-999,PAL1,2,R1002P
2003.302,4.0,1041394,TEST_PROBE,n/a,wordpools/wordpool_EN.txt,3,1,MOUTH,BOWL,BOWL,MOUTH,17,"[0, 0, 0]",-999,PAL1,2,R1002P
2003.303,2.354,1041394,REC_START,n/a,n/a,3,-999,n/a,BOWL,n/a,n/a,17,"[0, 0, 0]",-999,PAL1,2,R1002P
2005.657,2.662,1042571,REC_EVENT,2.354,n/a,3,1,MOUTH,BOWL,BOWL,MOUTH,17,"[0, 0, 0]",-999,PAL1,2,R1002P
2008.319,0.017,1043902,REC_END,n/a,n/a,3,-999,n/a,n/a,n/a,n/a,17,"[0, 0, 0]",-999,PAL1,2,R1002P
2008.336,0.275,1043911,TEST_ORIENT,n/a,n/a,4,2,MAT,MULE,MULE,MAT,17,"[0, 0, 0]",-999,PAL1,2,R1002P
2009.37,4.0,1044427,TEST_PROBE,n/a,wordpools/wordpool_EN.txt,4,2,MAT,MULE,MULE,MAT,17,"[0, 0, 0]",-999,PAL1,2,R1002P
2009.37,1.31,1044427,REC_START,n/a,n/a,4,-999,n/a,MULE,n/a,n/a,17,"[0, 0, 0]",-999,PAL1,2,R1002P
2010.68,3.707,1045082,REC_EVENT,1.31,n/a,4,2,MAT,MULE,MULE,MAT,17,"[0, 0, 0]",-999,PAL1,2,R1002P
2014.387,0.017,1046936,REC_END,n/a,n/a,4,-999,n/a,n/a,n/a,n/a,17,"[0, 0, 0]",-999,PAL1,2,R1002P
2014.404,0.275,1046944,TEST_ORIENT,n/a,n/a,1,3,CLOUD,BOMB,BOMB,CLOUD,17,"[0, 0, 0]",-999,PAL1,2,R1002P
2015.287,4.0,1047386,TEST_PROBE,n/a,wordpools/wordpool_EN.txt,1,3,CLOUD,BOMB,BOMB,CLOUD,17,"[0, 0, 0]",-999,PAL1,2,R1002P
2015.288,1.331,1047386,REC_START,n/a,n/a,1,-999,n/a,BOMB,n/a,n/a,17,"[0, 0, 0]",-999,PAL1,2,R1002P
2016.619,3.69,1048052,REC_EVENT,1.331,n/a,1,3,CLOUD,BOMB,BOMB,CLOUD,17,"[0, 0, 0]",-999,PAL1,2,R1002P
2020.309,0.013,1049897,REC_END,n/a,n/a,1,-999,n/a,n/a,n/a,n/a,17,"[0, 0, 0]",-999,PAL1,2,R1002P
2020.322,0.275,1049903,TEST_ORIENT,n/a,n/a,6,4,PEN,TIE,PEN,TIE,17,"[0, 0, 0]",-999,PAL1,2,R1002P
2021.305,4.0,1050395,TEST_PROBE,n/a,wordpools/wordpool_EN.txt,6,4,PEN,TIE,PEN,TIE,17,"[0, 0, 0]",-999,PAL1,2,R1002P
2021.306,1.26,1050395,REC_START,n/a,n/a,6,-999,n/a,TIE,n/a,n/a,17,"[0, 0, 0]",-999,PAL1,2,R1002P
2022.566,3.751,1051025,REC_EVENT,1.26,n/a,6,4,PEN,TIE,PEN,TIE,17,"[0, 0, 0]",-999,PAL1,2,R1002P
2026.317,0.023,1052901,REC_END,n/a,n/a,6,-999,n/a,n/a,n/a,n/a,17,"[0, 0, 0]",-999,PAL1,2,R1002P
2026.34,0.275,1052912,TEST_ORIENT,n/a,n/a,5,5,BALL,PASS,EAR,BALL,17,"[0, 0, 0]",-999,PAL1,2,R1002P
2027.323,4.0,1053403,TEST_PROBE,n/a,wordpools/wordpool_EN.txt,5,5,BALL,PASS,EAR,BALL,17,"[0, 0, 0]",-999,PAL1,2,R1002P
2027.324,3.884,1053404,REC_START,n/a,n/a,5,-999,n/a,PASS,n/a,n/a,17,"[0, 0, 0]",-999,PAL1,2,R1002P
2031.208,1.126,1055346,REC_EVENT,3.884,n/a,5,5,BALL,PASS,EAR,BALL,17,"[0, 0, 0]",-999,PAL1,2,R1002P
2032.334,0.024,1055909,REC_END,n/a,n/a,5,-999,n/a,n/a,n/a,n/a,17,"[0, 0, 0]",-999,PAL1,2,R1002P
2032.358,0.275,1055921,TEST_ORIENT,n/a,n/a,2,6,LAWN,EGG,EGG,LAWN,17,"[0, 0, 0]",-999,PAL1,2,R1002P
2033.174,4.0,1056329,TEST_PROBE,n/a,wordpools/wordpool_EN.txt,2,6,LAWN,EGG,EGG,LAWN,17,"[0, 0, 0]",-999,PAL1,2,R1002P
2033.175,2.414,1056329,REC_START,n/a,n/a,2,-999,n/a,EGG,n/a,n/a,17,"[0, 0, 0]",-999,PAL1,2,R1002P
2035.589,2.597,1057536,REC_EVENT,2.414,n/a,2,6,LAWN,EGG,EGG,LAWN,17,"[0, 0, 0]",-999,PAL1,2,R1002P
2038.186,2.299,1058835,REC_END,n/a,n/a,2,-999,n/a,n/a,n/a,n/a,17,"[0, 0, 0]",-999,PAL1,2,R1002P
2040.485,10.442,1059984,ENCODING_START,n/a,n/a,0,-999,n/a,n/a,n/a,n/a,18,"[0, 0, 0]",-999,PAL1,2,R1002P
2050.927,0.275,1065205,STUDY_ORIENT,n/a,n/a,1,3,SHIRT,PASS,GRAPE,SHIRT,18,"[0, 0, 0]",-999,PAL1,2,R1002P
2051.927,4.0,1065705,STUDY_PAIR,n/a,wordpools/wordpool_EN.txt,1,3,SHIRT,PASS,GRAPE,SHIRT,18,"[0, 0, 0]",-999,PAL1,2,R1002P
2056.962,0.275,1068222,STUDY_ORIENT,n/a,n/a,2,2,FILM,PASS,FILM,DOCK,18,"[0, 0, 0]",-999,PAL1,2,R1002P
2057.795,4.0,1068639,STUDY_PAIR,n/a,wordpools/wordpool_EN.txt,2,2,FILM,PASS,FILM,DOCK,18,"[0, 0, 0]",-999,PAL1,2,R1002P
2062.829,0.275,1071156,STUDY_ORIENT,n/a,n/a,3,1,SEAL,PASS,SEAL,LOCK,18,"[0, 0, 0]",-999,PAL1,2,R1002P
2063.629,4.0,1071556,STUDY_PAIR,n/a,wordpools/wordpool_EN.txt,3,1,SEAL,PASS,SEAL,LOCK,18,"[0, 0, 0]",-999,PAL1,2,R1002P
2068.647,0.275,1074064,STUDY_ORIENT,n/a,n/a,4,4,SNAIL,n/a,DITCH,SNAIL,18,"[0, 0, 0]",-999,PAL1,2,R1002P
2069.53,4.0,1074506,STUDY_PAIR,n/a,wordpools/wordpool_EN.txt,4,4,SNAIL,n/a,DITCH,SNAIL,18,"[0, 0, 0]",-999,PAL1,2,R1002P
2074.548,0.275,1077015,STUDY_ORIENT,n/a,n/a,5,5,STAIR,WOOD,STAIR,WOOD,18,"[0, 0, 0]",-999,PAL1,2,R1002P
2075.383,4.0,1077432,STUDY_PAIR,n/a,wordpools/wordpool_EN.txt,5,5,STAIR,WOOD,STAIR,WOOD,18,"[0, 0, 0]",-999,PAL1,2,R1002P
2080.417,0.275,1079949,STUDY_ORIENT,n/a,n/a,6,6,MOLE,FENCE,MOLE,FENCE,18,"[0, 0, 0]",-999,PAL1,2,R1002P
2081.217,4.0,1080349,STUDY_PAIR,n/a,wordpools/wordpool_EN.txt,6,6,MOLE,FENCE,MOLE,FENCE,18,"[0, 0, 0]",-999,PAL1,2,R1002P
2085.235,0.999,1082358,START,n/a,n/a,-999,-999,n/a,n/a,n/a,n/a,18,"[-999, -999, -999]",-999,PAL1,2,R1002P
2086.234,0.017,1082857,MATH_START,n/a,n/a,-999,-999,n/a,n/a,n/a,n/a,18,"[0, 0, 0]",-999,PAL1,2,R1002P
2086.251,6.818,1082866,PROB,6.794,n/a,-999,-999,n/a,n/a,n/a,n/a,18,"[6, 8, 9]",23,PAL1,2,R1002P
2093.069,5.684,1086275,PROB,5.655,n/a,-999,-999,n/a,n/a,n/a,n/a,18,"[9, 2, 7]",18,PAL1,2,R1002P
2098.753,4.368,1089117,PROB,4.34,n/a,-999,-999,n/a,n/a,n/a,n/a,18,"[9, 6, 1]",16,PAL1,2,R1002P
2103.121,4.755,1091300,PROB,4.755,n/a,-999,-999,n/a,n/a,n/a,n/a,18,"[1, 5, 1]",7,PAL1,2,R1002P
2107.876,0.012,1093678,STOP,n/a,n/a,-999,-999,n/a,n/a,n/a,n/a,18,"[-999, -999, -999]",-999,PAL1,2,R1002P
2107.888,0.0,1093684,MATH_END,n/a,n/a,-999,-999,n/a,n/a,n/a,n/a,18,"[0, 0, 0]",-999,PAL1,2,R1002P
2107.888,0.016,1093684,TEST_START,n/a,n/a,-999,-999,n/a,n/a,n/a,n/a,18,"[0, 0, 0]",-999,PAL1,2,R1002P
2107.904,0.275,1093692,TEST_ORIENT,n/a,n/a,3,1,SEAL,PASS,SEAL,LOCK,18,"[0, 0, 0]",-999,PAL1,2,R1002P
2108.905,0.0,1094192,REC_START,n/a,n/a,3,-999,n/a,PASS,n/a,n/a,18,"[0, 0, 0]",-999,PAL1,2,R1002P
2108.905,4.0,1094192,TEST_PROBE,n/a,wordpools/wordpool_EN.txt,3,1,SEAL,PASS,SEAL,LOCK,18,"[0, 0, 0]",-999,PAL1,2,R1002P
2111.872,2.054,1095676,REC_EVENT,2.967,n/a,3,1,SEAL,PASS,SEAL,LOCK,18,"[0, 0, 0]",-999,PAL1,2,R1002P
2113.926,0.013,1096703,REC_END,n/a,n/a,3,-999,n/a,n/a,n/a,n/a,18,"[0, 0, 0]",-999,PAL1,2,R1002P
2113.939,0.275,1096709,TEST_ORIENT,n/a,n/a,2,2,FILM,PASS,FILM,DOCK,18,"[0, 0, 0]",-999,PAL1,2,R1002P
2114.872,4.0,1097176,TEST_PROBE,n/a,wordpools/wordpool_EN.txt,2,2,FILM,PASS,FILM,DOCK,18,"[0, 0, 0]",-999,PAL1,2,R1002P
2114.873,2.993,1097176,REC_START,n/a,n/a,2,-999,n/a,PASS,n/a,n/a,18,"[0, 0, 0]",-999,PAL1,2,R1002P
2117.866,2.018,1098673,REC_EVENT,2.993,n/a,2,2,FILM,PASS,FILM,DOCK,18,"[0, 0, 0]",-999,PAL1,2,R1002P
2119.884,0.023,1099681,REC_END,n/a,n/a,2,-999,n/a,n/a,n/a,n/a,18,"[0, 0, 0]",-999,PAL1,2,R1002P
2119.907,0.275,1099693,TEST_ORIENT,n/a,n/a,1,3,SHIRT,PASS,GRAPE,SHIRT,18,"[0, 0, 0]",-999,PAL1,2,R1002P
2120.707,4.0,1100093,TEST_PROBE,n/a,wordpools/wordpool_EN.txt,1,3,SHIRT,PASS,GRAPE,SHIRT,18,"[0, 0, 0]",-999,PAL1,2,R1002P
2120.708,2.545,1100093,REC_START,n/a,n/a,1,-999,n/a,PASS,n/a,n/a,18,"[0, 0, 0]",-999,PAL1,2,R1002P
2123.253,2.471,1101366,REC_EVENT,2.545,n/a,1,3,SHIRT,PASS,GRAPE,SHIRT,18,"[0, 0, 0]",-999,PAL1,2,R1002P
2125.724,0.017,1102601,REC_END,n/a,n/a,1,-999,n/a,n/a,n/a,n/a,18,"[0, 0, 0]",-999,PAL1,2,R1002P
2125.741,0.275,1102610,TEST_ORIENT,n/a,n/a,4,4,SNAIL,n/a,DITCH,SNAIL,18,"[0, 0, 0]",-999,PAL1,2,R1002P
2126.691,4.0,1103085,TEST_PROBE,n/a,wordpools/wordpool_EN.txt,4,4,SNAIL,n/a,DITCH,SNAIL,18,"[0, 0, 0]",-999,PAL1,2,R1002P
2126.692,5.0,1103085,REC_START,n/a,n/a,4,-999,n/a,n/a,n/a,n/a,18,"[0, 0, 0]",-999,PAL1,2,R1002P
2131.692,0.003,1105585,REC_END,n/a,n/a,4,-999,n/a,n/a,n/a,n/a,18,"[0, 0, 0]",-999,PAL1,2,R1002P
2131.695,0.014,1105587,REC_EVENT,5.003,n/a,4,4,SNAIL,<>,DITCH,SNAIL,18,"[0, 0, 0]",-999,PAL1,2,R1002P
2131.709,0.275,1105594,TEST_ORIENT,n/a,n/a,5,5,STAIR,WOOD,STAIR,WOOD,18,"[0, 0, 0]",-999,PAL1,2,R1002P
2132.51,4.0,1105994,TEST_PROBE,n/a,wordpools/wordpool_EN.txt,5,5,STAIR,WOOD,STAIR,WOOD,18,"[0, 0, 0]",-999,PAL1,2,R1002P
2132.511,1.136,1105995,REC_START,n/a,n/a,5,-999,n/a,WOOD,n/a,n/a,18,"[0, 0, 0]",-999,PAL1,2,R1002P
2133.647,3.875,1106563,REC_EVENT,1.136,n/a,5,5,STAIR,WOOD,STAIR,WOOD,18,"[0, 0, 0]",-999,PAL1,2,R1002P
2137.522,0.021,1108500,REC_END,n/a,n/a,5,-999,n/a,n/a,n/a,n/a,18,"[0, 0, 0]",-999,PAL1,2,R1002P
2137.543,0.275,1108511,TEST_ORIENT,n/a,n/a,6,6,MOLE,FENCE,MOLE,FENCE,18,"[0, 0, 0]",-999,PAL1,2,R1002P
2138.411,4.0,1108944,TEST_PROBE,n/a,wordpools/wordpool_EN.txt,6,6,MOLE,FENCE,MOLE,FENCE,18,"[0, 0, 0]",-999,PAL1,2,R1002P
2138.412,0.939,1108945,REC_START,n/a,n/a,6,-999,n/a,FENCE,n/a,n/a,18,"[0, 0, 0]",-999,PAL1,2,R1002P
2139.351,4.071,1109414,REC_EVENT,0.939,n/a,6,6,MOLE,FENCE,MOLE,FENCE,18,"[0, 0, 0]",-999,PAL1,2,R1002P
2143.422,2.166,1111450,REC_END,n/a,n/a,6,-999,n/a,n/a,n/a,n/a,18,"[0, 0, 0]",-999,PAL1,2,R1002P
2145.588,10.443,1112533,ENCODING_START,n/a,n/a,0,-999,n/a,n/a,n/a,n/a,19,"[0, 0, 0]",-999,PAL1,2,R1002P
2156.031,0.275,1117754,STUDY_ORIENT,n/a,n/a,1,3,BAT,SHOE,SHOE,BAT,19,"[0, 0, 0]",-999,PAL1,2,R1002P
2157.048,4.0,1118262,STUDY_PAIR,n/a,wordpools/wordpool_EN.txt,1,3,BAT,SHOE,SHOE,BAT,19,"[0, 0, 0]",-999,PAL1,2,R1002P
2162.066,0.275,1120771,STUDY_ORIENT,n/a,n/a,2,4,SHIP,BOARD,BOARD,SHIP,19,"[0, 0, 0]",-999,PAL1,2,R1002P
2162.932,4.0,1121204,STUDY_PAIR,n/a,wordpools/wordpool_EN.txt,2,4,SHIP,BOARD,BOARD,SHIP,19,"[0, 0, 0]",-999,PAL1,2,R1002P
2167.967,0.275,1123722,STUDY_ORIENT,n/a,n/a,3,5,SEA,PASS,ROOM,SEA,19,"[0, 0, 0]",-999,PAL1,2,R1002P
2168.799,4.0,1124138,STUDY_PAIR,n/a,wordpools/wordpool_EN.txt,3,5,SEA,PASS,ROOM,SEA,19,"[0, 0, 0]",-999,PAL1,2,R1002P
2173.817,0.275,1126647,STUDY_ORIENT,n/a,n/a,4,2,GATE,PASS,ICE,GATE,19,"[0, 0, 0]",-999,PAL1,2,R1002P
2174.701,4.0,1127089,STUDY_PAIR,n/a,wordpools/wordpool_EN.txt,4,2,GATE,PASS,ICE,GATE,19,"[0, 0, 0]",-999,PAL1,2,R1002P
2179.735,0.275,1129605,STUDY_ORIENT,n/a,n/a,5,1,CLOTH,PASS,CLOTH,GUARD,19,"[0, 0, 0]",-999,PAL1,2,R1002P
2180.602,4.0,1130039,STUDY_PAIR,n/a,wordpools/wordpool_EN.txt,5,1,CLOTH,PASS,CLOTH,GUARD,19,"[0, 0, 0]",-999,PAL1,2,R1002P
2185.636,0.275,1132556,STUDY_ORIENT,n/a,n/a,6,6,PLANT,PASS,PLANT,TRAIN,19,"[0, 0, 0]",-999,PAL1,2,R1002P
2186.437,4.0,1132956,STUDY_PAIR,n/a,wordpools/wordpool_EN.txt,6,6,PLANT,PASS,PLANT,TRAIN,19,"[0, 0, 0]",-999,PAL1,2,R1002P
2190.438,1.0,1134957,START,n/a,n/a,-999,-999,n/a,n/a,n/a,n/a,19,"[-999, -999, -999]",-999,PAL1,2,R1002P
